FMT, 128, 89, FMT, BBnNZ, Type,Length,Name,Format,Columns
FMT, 129, 23, PARM, Nf, Name,Value
FMT, 130, 45, GPS, BIHBcLLeeEefI, Status,TimeMS,Week,NSats,HDop,Lat,Lng,RelAlt,Alt,Spd,GCrs,VZ,T
FMT, 131, 31, IMU, Iffffff, TimeMS,GyrX,GyrY,GyrZ,AccX,AccY,AccZ
FMT, 132, 67, MSG, Z, Message
FMT, 133, 35, RCIN, Ihhhhhhhhhhhhhh, TimeMS,C1,C2,C3,C4,C5,C6,C7,C8,C9,C10,C11,C12,C13,C14
FMT, 134, 23, RCOU, Ihhhhhhhh, TimeMS,Chan1,Chan2,Chan3,Chan4,Chan5,Chan6,Chan7,Chan8
FMT, 136, 21, BARO, Iffcf, TimeMS,Alt,Press,Temp,CRt
FMT, 137, 13, POWR, ICCH, TimeMS,Vcc,VServo,Flags
FMT, 145, 41, CMD, IHHHfffffff, TimeMS,CTot,CNum,CId,Prm1,Prm2,Prm3,Prm4,Lat,Lng,Alt
FMT, 146, 16, RAD, IBBBBBHH, TimeMS,RSSI,RemRSSI,TxBuf,Noise,RemNoise,RxErrors,Fixed
FMT, 148, 31, CAM, IHLLeeccC, GPSTime,GPSWeek,Lat,Lng,Alt,RelAlt,Roll,Pitch,Yaw
FMT, 25, 25, ATUN, BBfffff, Axis,TuneStep,RateMin,RateMax,RPGain,RDGain,SPGain
FMT, 26, 9, ATDE, cf, Angle,Rate
FMT, 9, 23, CURR, IhIhhhf, TimeMS,ThrOut,ThrInt,Volt,Curr,Vcc,CurrTot
FMT, 12, 20, OF, hhBccee, Dx,Dy,SQual,X,Y,Roll,Pitch
FMT, 5, 47, NTUN, Iffffffffff, TimeMS,DPosX,DPosY,PosX,PosY,DVelX,DVelY,VelX,VelY,DAccX,DAccY
FMT, 4, 33, CTUN, Ihhhffecchh, TimeMS,ThrIn,AngBst,ThrOut,DAlt,Alt,BarAlt,DSAlt,SAlt,DCRt,CRt
FMT, 15, 25, MAG, Ihhhhhhhhh, TimeMS,MagX,MagY,MagZ,OfsX,OfsY,OfsZ,MOfsX,MOfsY,MOfsZ
FMT, 6, 17, PM, HHIhBHB, NLon,NLoop,MaxT,PMT,I2CErr,INSErr,INAVErr
FMT, 1, 23, ATT, IccccCCCC, TimeMS,DesRoll,Roll,DesPitch,Pitch,DesYaw,Yaw,ErrRP,ErrYaw
FMT, 3, 6, MODE, Mh, Mode,ThrCrs
FMT, 10, 3, STRT, , 
FMT, 13, 4, EV, B, Id
FMT, 20, 6, D16, Bh, Id,Value
FMT, 21, 6, DU16, BH, Id,Value
FMT, 22, 8, D32, Bi, Id,Value
FMT, 23, 8, DU32, BI, Id,Value
FMT, 24, 8, DFLT, Bf, Id,Value
FMT, 19, 5, ERR, BB, Subsys,ECode
RCIN, 46629, 1469, 1693, 1190, 1522, 1042, 1027, 1499, 1500, 0, 0, 0, 0, 0, 0
NTUN, 46629, -96.80713, 447.2423, -71.77773, 437.5791, -25.14971, 9.356598, 1.393939, -8.338543, -104.3311, -71.76978
PM, 53, 1000, 11971, 0, 0, 0, 0
DU32, 7, 150393
CURR, 46669, 1000, 27681, 1274, 1785, 4712, 208.0297
CTUN, 46689, 157, -16, 1000, 2.185637, 0.41, 0.67, 0.00, 0.00, -150, -12
GPS, 3, 394116000, 1893, 6, 5.40, 41.3134688, -105.5816929, 0.41, 2211.94, 0.04, 0.00, -0.04, 46698
ATT, 46728, -4.54, 10.39, -5.79, 2.32, 245.36, 255.19, 0.06, 0.30
RCIN, 46728, 1470, 1693, 1190, 1523, 1041, 1026, 1500, 1499, 0, 0, 0, 0, 0, 0
NTUN, 46728, -96.81724, 447.4159, -72.11687, 436.8241, -24.70267, 10.42789, 1.662047, -5.916361, -100.8206, -76.29419
CTUN, 46790, 158, -28, 1000, 2.277656, 0.42, 0.61, 0.00, 0.00, -150, -8
ATT, 46829, -4.67, 10.69, -6.04, 2.09, 245.36, 255.18, 0.06, 0.32
RCIN, 46830, 1473, 1693, 1188, 1520, 1040, 1028, 1500, 1499, 0, 0, 0, 0, 0, 0
NTUN, 46830, -96.82782, 447.5978, -72.18255, 436.3379, -24.68452, 11.12311, 0.07773337, -5.070755, -104.0891, -79.88982
CTUN, 46890, 157, -37, 1000, 2.36824, 0.42, 0.46, 0.00, 0.00, -150, -9
GPS, 3, 394116200, 1893, 6, 5.40, 41.3134689, -105.5816935, 0.42, 2211.86, 0.01, 0.00, -0.04, 46900
ATT, 46930, -4.62, 11.24, -6.07, 1.50, 245.36, 255.17, 0.02, 0.31
RCIN, 46931, 1473, 1693, 1189, 1522, 1042, 1027, 1499, 1500, 0, 0, 0, 0, 0, 0
NTUN, 46931, -96.83824, 447.7769, -72.26601, 435.8995, -24.58119, 11.71844, 1.209729, -3.858821, -103.5314, -80.56149
CTUN, 46990, 157, -51, 1000, 2.462789, 0.41, 0.57, 0.00, 0.00, -150, -5
ATT, 47029, -4.70, 11.41, -5.94, 1.16, 245.36, 255.25, 0.02, 0.31
RCIN, 47030, 1470, 1692, 1187, 1521, 1039, 1028, 1499, 1500, 0, 0, 0, 0, 0, 0
NTUN, 47030, -96.84912, 447.9637, -72.32832, 435.4315, -24.54472, 12.39655, 0.5717126, -2.862804, -104.1238, -78.14778
CTUN, 47090, 159, -81, 1000, 2.553122, 0.41, 0.58, 0.00, 0.00, -150, -9
GPS, 3, 394116400, 1893, 6, 5.40, 41.313469, -105.5816942, 0.41, 2211.78, 0.02, 0.00, -0.03, 47100
ATT, 47131, -4.61, 11.78, -5.99, 0.79, 245.36, 255.17, 0.02, 0.31
RCIN, 47132, 1469, 1695, 1190, 1522, 1040, 1027, 1499, 1499, 0, 0, 0, 0, 0, 0
NTUN, 47132, -96.85951, 448.1423, -72.43443, 434.9117, -24.43318, 12.99002, -0.02186382, -2.181127, -102.8096, -79.26666
CTUN, 47191, 158, -89, 1000, 2.645399, 0.41, 0.69, 0.00, 0.00, -150, -8
ATT, 47232, -4.62, 11.99, -5.79, 0.51, 245.36, 255.18, 0.02, 0.30
RCIN, 47232, 1470, 1692, 1188, 1520, 1040, 1026, 1499, 1500, 0, 0, 0, 0, 0, 0
NTUN, 47232, -96.87012, 448.3247, -72.53127, 434.196, -24.37695, 13.94183, -1.003606, -0.05361772, -102.2073, -75.86042
CTUN, 47291, 158, -81, 1000, 2.73898, 0.42, 0.64, 0.00, 0.00, -150, -6
GPS, 3, 394116600, 1893, 6, 5.40, 41.313469, -105.5816945, 0.42, 2211.73, 0.02, 0.00, -0.03, 47301
ATT, 47331, -4.53, 12.09, -5.91, 0.51, 245.36, 255.08, 0.01, 0.29
RCIN, 47331, 1469, 1695, 1189, 1522, 1037, 1028, 1499, 1499, 0, 0, 0, 0, 0, 0
NTUN, 47331, -96.88089, 448.5097, -72.67298, 433.7204, -24.26946, 14.64697, -1.968305, 2.122233, -101.3511, -78.15317
CTUN, 47391, 159, -102, 1000, 2.829963, 0.43, 0.53, 0.00, 0.00, -150, -9
ATT, 47431, -4.44, 12.19, -5.93, 0.30, 245.36, 255.04, 0.01, 0.30
RCIN, 47431, 1470, 1695, 1190, 1521, 1042, 1027, 1500, 1499, 0, 0, 0, 0, 0, 0
NTUN, 47431, -96.89136, 448.6895, -72.86162, 433.3098, -24.0703, 15.27322, -0.1491152, 2.540762, -99.90804, -78.85626
CTUN, 47491, 159, -122, 1000, 2.924008, 0.42, 0.71, 0.00, 0.00, -150, -6
GPS, 3, 394116800, 1893, 6, 5.40, 41.3134691, -105.5816948, 0.43, 2211.68, 0.02, 0.00, -0.03, 47502
ATT, 47531, -4.38, 12.39, -5.98, 0.17, 245.36, 255.02, 0.01, 0.30
RCIN, 47531, 1469, 1695, 1190, 1521, 1043, 1026, 1500, 1499, 0, 0, 0, 0, 0, 0
NTUN, 47531, -96.90218, 448.8754, -73.02312, 432.9824, -23.90987, 15.77737, -1.616798, 2.935755, -99.18486, -79.87643
CTUN, 47591, 158, -137, 1000, 3.014711, 0.43, 0.40, 0.00, 0.00, -150, -9
ATT, 47630, -4.30, 12.32, -6.01, 0.23, 245.36, 254.97, 0.01, 0.29
RCIN, 47631, 1469, 1693, 1187, 1523, 1041, 1027, 1499, 1500, 0, 0, 0, 0, 0, 0
NTUN, 47631, -96.91261, 449.0547, -73.26286, 432.739, -23.72974, 16.25909, -3.844168, 5.249536, -98.11108, -80.64712
DU32, 7, 150393
CURR, 47672, 1000, 37681, 1273, 1785, 4712, 213.0179
CTUN, 47692, 163, -155, 1000, 3.104876, 0.42, 0.52, 0.00, 0.00, -150, -9
GPS, 3, 394117000, 1893, 6, 5.40, 41.3134691, -105.5816952, 0.42, 2211.63, 0.01, 0.00, -0.02, 47703
ATT, 47732, -4.07, 12.23, -6.01, 0.23, 245.36, 254.92, 0.03, 0.29
RCIN, 47732, 1473, 1695, 1190, 1522, 1041, 1028, 1499, 1500, 0, 0, 0, 0, 0, 0
NTUN, 47732, -96.92298, 449.2329, -73.65619, 432.5247, -23.39613, 16.61633, -4.427994, 5.970808, -94.37328, -81.65279
CTUN, 47793, 157, -161, 1000, 3.196424, 0.42, 0.46, 0.00, 0.00, -150, -10
ATT, 47832, -4.08, 12.22, -5.94, 0.25, 245.36, 254.82, 0.03, 0.28
RCIN, 47832, 1469, 1693, 1187, 1521, 1039, 1027, 1499, 1499, 0, 0, 0, 0, 0, 0
NTUN, 47832, -96.93352, 449.4138, -74.05666, 432.2603, -22.98745, 17.07654, -4.857358, 6.88236, -94.2345, -80.22274
CTUN, 47893, 156, -188, 1000, 3.28302, 0.41, 0.54, 0.00, 0.00, -150, -13
GPS, 3, 394117200, 1893, 6, 5.40, 41.3134692, -105.5816954, 0.40, 2211.59, 0.03, 0.00, -0.03, 47903
ATT, 47932, -3.92, 12.54, -5.93, 0.08, 245.36, 254.77, 0.01, 0.29
RCIN, 47933, 1473, 1693, 1188, 1520, 1039, 1027, 1500, 1499, 0, 0, 0, 0, 0, 0
NTUN, 47933, -96.94347, 449.585, -74.49525, 432.0283, -22.56232, 17.4971, -6.152176, 7.5647, -91.71983, -80.65796
CTUN, 47993, 158, -203, 1000, 3.367375, 0.4, 0.70, 0.00, 0.00, -150, -15
ATT, 48033, -3.77, 12.66, -6.00, -0.03, 245.36, 254.75, 0.01, 0.29
RCIN, 48033, 1469, 1693, 1187, 1520, 1553, 1027, 1499, 1500, 0, 0, 0, 0, 0, 0
NTUN, 48034, -96.95318, 449.7518, -74.96278, 431.89, -22.13557, 17.83472, -6.643028, 8.195325, -89.58413, -82.55922
CTUN, 48094, 160, -213, 1000, 3.451093, 0.4, 0.20, 0.00, 0.00, -150, -17
GPS, 3, 394117400, 1893, 6, 5.40, 41.3134692, -105.5816957, 0.40, 2211.55, 0.01, 0.00, -0.02, 48104
ATT, 48133, -3.64, 12.46, -6.05, 0.09, 245.36, 254.73, 0.04, 0.29
RCIN, 48133, 1466, 1693, 1188, 1519, 1553, 1028, 1500, 1499, 0, 0, 0, 0, 0, 0
NTUN, 48133, -96.96281, 449.9172, -75.53061, 431.8281, -21.60706, 18.04242, -8.15847, 9.02204, -87.72594, -83.94675
MODE, AltHold, 504
CTUN, 48195, 158, -63, 1000, 2.35638, 0.37, 0.31, 0.00, 0.00, -151, -21
ATT, 48235, 0.00, 12.55, 0.00, 0.03, 245.36, 254.63, 0.04, 0.28
RCIN, 48235, 1470, 1692, 1188, 1521, 2029, 1028, 1499, 1499, 0, 0, 0, 0, 0, 0
CTUN, 48305, 160, -86, 1000, 2.190668, 0.34, 0.57, 0.00, 0.00, -151, -18
GPS, 3, 394117600, 1893, 6, 5.40, 41.3134691, -105.5816958, 0.34, 2211.53, 0.03, 0.00, -0.03, 48314
ATT, 48335, 0.00, 13.10, 0.00, 0.08, 245.36, 254.69, 0.01, 0.30
RCIN, 48335, 1473, 1693, 1187, 1520, 2029, 1028, 1500, 1499, 0, 0, 0, 0, 0, 0
CTUN, 48405, 158, -67, 1000, 2.040308, 0.33, 0.44, 0.00, 0.00, -151, -20
ATT, 48435, 0.00, 13.54, 0.00, 0.12, 245.36, 255.24, 0.01, 0.29
RCIN, 48435, 1470, 1692, 1187, 1521, 2031, 1028, 1500, 1499, 0, 0, 0, 0, 0, 0
GPS, 3, 394117800, 1893, 6, 5.40, 41.3134691, -105.581696, 0.31, 2211.51, 0.02, 0.00, -0.02, 48495
CTUN, 48515, 160, -53, 1000, 1.874563, 0.31, 0.52, 0.00, 0.00, -150, -25
ATT, 48534, 0.00, 13.53, 0.00, 0.22, 246.41, 256.41, 0.04, 0.29
RCIN, 48534, 1469, 1693, 1187, 1520, 2030, 1027, 1500, 1499, 0, 0, 0, 0, 0, 0
CTUN, 48615, 153, -11, 1000, 1.722663, 0.3, 0.57, 0.00, 0.00, -154, -25
ATT, 48634, 0.00, 13.42, 0.00, 0.07, 247.61, 257.61, 0.04, 0.30
RCIN, 48635, 1469, 1695, 1165, 1522, 2031, 1028, 1500, 1499, 0, 0, 0, 0, 0, 0
DU32, 7, 150393
CURR, 48685, 984, 47681, 1273, 1784, 4732, 218.0107
GPS, 3, 394118000, 1893, 6, 5.40, 41.3134691, -105.5816962, 0.28, 2211.48, 0.03, 0.00, -0.02, 48714
CTUN, 48716, 0, 22, 960, 1.516013, 0.28, 0.75, 0.00, 0.00, -250, -22
ATT, 48736, 0.00, 13.61, 0.00, 0.00, 248.16, 258.16, 0.01, 0.31
RCIN, 48736, 1468, 1691, 1137, 1527, 2030, 1028, 1500, 1499, 0, 0, 0, 0, 0, 0
CTUN, 48815, 0, 21, 890, 1.265663, 0.29, 0.68, 0.00, 0.00, -250, -21
ATT, 48835, 0.00, 13.73, 0.00, 0.13, 248.30, 258.30, 0.01, 0.31
RCIN, 48835, 1469, 1691, 1137, 1526, 2031, 1028, 1500, 1499, 0, 0, 0, 0, 0, 0
GPS, 3, 394118200, 1893, 6, 5.40, 41.313469, -105.5816966, 0.29, 2211.45, 0.02, 0.00, -0.02, 48914
CTUN, 48916, 0, 20, 831, 1.016093, 0.29, 0.68, 0.00, 0.00, -250, -22
ATT, 48935, 0.00, 13.82, 0.00, 0.03, 248.43, 258.43, 0.02, 0.32
RCIN, 48935, 1469, 1691, 1137, 1524, 2030, 1027, 1500, 1499, 0, 0, 0, 0, 0, 0
CTUN, 49015, 0, 17, 756, 0.7660007, 0.29, 0.90, 0.00, 0.00, -250, -21
ATT, 49035, 0.00, 13.79, 0.00, 0.05, 248.61, 258.60, 0.02, 0.33
RCIN, 49035, 1468, 1692, 1137, 1526, 2029, 1027, 1500, 1499, 0, 0, 0, 0, 0, 0
GPS, 3, 394118400, 1893, 6, 5.40, 41.3134689, -105.5816967, 0.30, 2211.43, 0.02, 0.00, -0.01, 49114
CTUN, 49116, 0, 16, 693, 0.5160258, 0.3, 0.77, 0.00, 0.00, -250, -21
ATT, 49135, 0.00, 13.87, 0.00, 0.04, 248.67, 258.67, 0.02, 0.32
RCIN, 49135, 1469, 1693, 1135, 1520, 2029, 1027, 1500, 1499, 0, 0, 0, 0, 0, 0
CTUN, 49215, 0, 14, 628, 0.2660132, 0.31, 0.75, 0.00, 0.00, -250, -21
ATT, 49235, 0.00, 13.75, 0.00, 0.04, 248.69, 258.65, 0.02, 0.31
RCIN, 49236, 1469, 1693, 1137, 1523, 2031, 1027, 1500, 1499, 0, 0, 0, 0, 0, 0
GPS, 3, 394118600, 1893, 6, 5.40, 41.3134688, -105.5816971, 0.31, 2211.40, 0.02, 0.00, -0.01, 49315
CTUN, 49317, 0, 12, 544, 0.01560573, 0.31, 0.67, 0.00, 0.00, -250, -19
ATT, 49336, 0.00, 13.89, 0.00, 0.07, 248.69, 258.59, 0.04, 0.32
RCIN, 49336, 1468, 1693, 1135, 1520, 2030, 1027, 1500, 1499, 0, 0, 0, 0, 0, 0
CTUN, 49417, 0, 10, 482, -0.2372943, 0.31, 0.65, 0.00, 0.00, -250, -24
ATT, 49436, 0.00, 13.65, 0.00, -0.01, 248.69, 258.56, 0.04, 0.28
RCIN, 49436, 1469, 1692, 1135, 1523, 2030, 1027, 1500, 1499, 0, 0, 0, 0, 0, 0
GPS, 3, 394118800, 1893, 6, 5.40, 41.3134687, -105.5816971, 0.30, 2211.39, 0.02, 0.00, -0.02, 49516
CTUN, 49518, 0, 6, 402, -0.4874043, 0.3, 0.45, 0.00, 0.00, -250, -27
ATT, 49547, 0.00, 12.52, 0.00, 0.02, 248.69, 258.49, 0.00, 0.25
RCIN, 49547, 1470, 1693, 1136, 1519, 2030, 1027, 1500, 1499, 0, 0, 0, 0, 0, 0
CTUN, 49617, 0, 4, 312, -0.7135868, 0.28, 0.61, 0.00, 0.00, -250, -27
ATT, 49646, 0.00, 11.66, 0.00, -0.05, 248.69, 258.42, 0.00, 0.22
RCIN, 49646, 1470, 1692, 1135, 1521, 2029, 1027, 1500, 1499, 0, 0, 0, 0, 0, 0
DU32, 7, 674681
CURR, 49686, 292, 53824, 1271, 1784, 4712, 222.9827
GPS, 3, 394119000, 1893, 6, 5.40, 41.3134686, -105.5816974, 0.27, 2211.35, 0.04, 0.00, 0, 49716
CTUN, 49718, 0, 3, 304, -0.7630893, 0.27, 0.36, 0.00, 0.00, -250, -27
ATT, 49746, 0.00, 11.01, 0.00, -0.11, 248.69, 258.39, 0.03, 0.20
RCIN, 49746, 1469, 1693, 1135, 1520, 2029, 1027, 1500, 1499, 0, 0, 0, 0, 0, 0
CTUN, 49817, 0, 3, 309, -0.7878343, 0.24, 0.10, 0.00, 0.00, -250, -27
ATT, 49847, 0.00, 10.75, 0.00, -0.16, 248.69, 258.33, 0.03, 0.19
RCIN, 49847, 1469, 1693, 1135, 1522, 2031, 1027, 1500, 1499, 0, 0, 0, 0, 0, 0
GPS, 3, 394119200, 1893, 6, 5.40, 41.3134684, -105.5816975, 0.21, 2211.32, 0.04, 0.00, -0.02, 49916
CTUN, 49918, 0, 3, 314, -0.8131493, 0.21, 0.01, 0.00, 0.00, -250, -28
ATT, 49946, 0.00, 10.51, 0.00, -0.24, 248.69, 258.25, 0.01, 0.20
RCIN, 49946, 1473, 1692, 1135, 1521, 2029, 1027, 1500, 1499, 0, 0, 0, 0, 0, 0
CTUN, 50018, 0, 3, 307, -0.8636118, 0.16, 0.06, 0.00, 0.00, -250, -29
ATT, 50048, 0.00, 10.38, 0.00, -0.27, 248.69, 258.16, 0.01, 0.19
RCIN, 50048, 1469, 1694, 1136, 1523, 2031, 1027, 1500, 1499, 0, 0, 0, 0, 0, 0
GPS, 3, 394119400, 1893, 6, 5.40, 41.3134684, -105.5816978, 0.13, 2211.29, 0.02, 0.00, -0.02, 50098
CTUN, 50118, 0, 2, 303, -0.8886018, 0.12, 0.04, 0.00, 0.00, -250, -28
ATT, 50148, 0.00, 10.25, 0.00, -0.29, 248.69, 258.10, 0.03, 0.19
RCIN, 50148, 1469, 1694, 1138, 1522, 2030, 1027, 1500, 1499, 0, 0, 0, 0, 0, 0
CTUN, 50218, 0, 2, 305, -0.9135919, 0.09, 0.20, 0.00, 0.00, -250, -29
ATT, 50258, 0.00, 10.15, 0.00, -0.30, 248.69, 258.01, 0.03, 0.19
RCIN, 50258, 1470, 1692, 1136, 1521, 2031, 1027, 1500, 1499, 0, 0, 0, 0, 0, 0
GPS, 3, 394119600, 1893, 6, 5.40, 41.3134683, -105.5816978, 0.07, 2211.28, 0.03, 0.00, -0.03, 50298
CTUN, 50318, 0, 2, 298, -0.9389943, 0.06, -0.06, 0.00, 0.00, -250, -29
ATT, 50357, 0.00, 10.11, 0.00, -0.31, 248.69, 257.94, 0.01, 0.19
RCIN, 50358, 1469, 1695, 1137, 1523, 2030, 1028, 1500, 1499, 0, 0, 0, 0, 0, 0
CTUN, 50418, 0, 2, 302, -0.9389943, 0.02, -0.12, 0.00, 0.00, -250, -26
ATT, 50458, 0.00, 10.05, 0.00, -0.31, 248.69, 257.86, 0.01, 0.19
RCIN, 50458, 1468, 1694, 1136, 1523, 2031, 1028, 1500, 1499, 0, 0, 0, 0, 0, 0
GPS, 3, 394119800, 1893, 6, 5.40, 41.3134682, -105.5816979, 0.00, 2211.25, 0.02, 0.00, -0.02, 50517
CTUN, 50519, 0, 2, 308, -0.9389943, 0, -0.05, 0.00, 0.00, -250, -24
ATT, 50559, 0.00, 9.98, 0.00, -0.31, 248.69, 257.79, 0.04, 0.18
RCIN, 50560, 1469, 1691, 1138, 1525, 2030, 1026, 1500, 1499, 0, 0, 0, 0, 0, 0
CTUN, 50620, 0, 2, 312, -0.9638493, -0.04, -0.05, 0.00, 0.00, -250, -26
ATT, 50658, 0.00, 9.95, 0.00, -0.32, 248.69, 257.74, 0.04, 0.18
RCIN, 50658, 1469, 1689, 1137, 1526, 2032, 1027, 1499, 1500, 0, 0, 0, 0, 0, 0
DU32, 7, 674681
CURR, 50689, 307, 56892, 1279, 1796, 4732, 227.9674
GPS, 3, 394120000, 1893, 6, 5.40, 41.3134682, -105.5816979, -0.06, 2211.25, 0.02, 0.00, -0.02, 50718
CTUN, 50720, 0, 2, 306, -0.9885169, -0.06, 0.11, 0.00, 0.00, -250, -26
ATT, 50760, 0.00, 9.94, 0.00, -0.32, 248.69, 257.66, 0.02, 0.18
RCIN, 50760, 1468, 1695, 1138, 1522, 2029, 1028, 1499, 1500, 0, 0, 0, 0, 0, 0
CTUN, 50819, 0, 2, 305, -1.013209, -0.08, 0.13, 0.00, 0.00, -250, -26
ATT, 50859, 0.00, 9.94, 0.00, -0.33, 248.69, 257.58, 0.02, 0.18
RCIN, 50859, 1470, 1694, 1138, 1522, 2031, 1028, 1499, 1500, 0, 0, 0, 0, 0, 0
GPS, 3, 394120200, 1893, 6, 5.40, 41.3134681, -105.581698, -0.09, 2211.24, 0.01, 0.00, -0.02, 50900
CTUN, 50920, 0, 2, 306, -1.013209, -0.1, 0.02, 0.00, 0.00, -250, -25
ATT, 50959, 0.00, 9.93, 0.00, -0.34, 248.69, 257.51, 0.02, 0.18
RCIN, 50960, 1469, 1692, 1136, 1520, 2029, 1028, 1499, 1500, 0, 0, 0, 0, 0, 0
CTUN, 51020, 0, 2, 310, -1.038007, -0.12, -0.09, 0.00, 0.00, -250, -28
ATT, 51058, 0.00, 9.89, 0.00, -0.35, 248.69, 257.43, 0.02, 0.18
RCIN, 51059, 1474, 1677, 1136, 1536, 2030, 1027, 1499, 1500, 0, 0, 0, 0, 0, 0
GPS, 3, 394120400, 1893, 6, 5.40, 41.3134681, -105.5816979, -0.14, 2211.24, 0.03, 0.00, -0.03, 51099
CTUN, 51120, 0, 2, 296, -1.087984, -0.15, 0.03, 0.00, 0.00, -250, -30
ATT, 51160, 0.00, 9.89, 0.00, -0.35, 248.69, 257.36, 0.01, 0.18
RCIN, 51160, 1469, 1684, 1136, 1532, 2030, 1027, 1499, 1500, 0, 0, 0, 0, 0, 0
CTUN, 51220, 0, 2, 304, -1.087984, -0.17, 0.00, 0.00, 0.00, -250, -29
ATT, 51259, 0.00, 9.88, 0.00, -0.35, 248.69, 257.29, 0.01, 0.18
RCIN, 51260, 1469, 1688, 1136, 1524, 2030, 1028, 1499, 1500, 0, 0, 0, 0, 0, 0
GPS, 3, 394120600, 1893, 6, 5.40, 41.3134681, -105.5816978, -0.19, 2211.23, 0.03, 0.00, -0.03, 51300
CTUN, 51320, 0, 2, 306, -1.087984, -0.19, -0.01, 0.00, 0.00, -250, -27
ATT, 51361, 0.00, 9.84, 0.00, -0.34, 248.69, 257.21, 0.02, 0.18
RCIN, 51361, 1469, 1688, 1136, 1524, 2029, 1028, 1499, 1500, 0, 0, 0, 0, 0, 0
CTUN, 51421, 0, 2, 307, -1.087984, -0.21, -0.10, 0.00, 0.00, -250, -26
ATT, 51461, 0.00, 9.82, 0.00, -0.32, 248.69, 257.15, 0.02, 0.18
RCIN, 51461, 1469, 1662, 1137, 1555, 2031, 1027, 1499, 1500, 0, 0, 0, 0, 0, 0
GPS, 3, 394120800, 1893, 6, 5.40, 41.3134681, -105.5816977, -0.23, 2211.24, 0.02, 0.00, -0.03, 51521
CTUN, 51523, 0, 2, 316, -1.112989, -0.23, 0.07, 0.00, 0.00, -250, -29
ATT, 51562, 0.00, 9.83, -2.30, -0.33, 248.87, 257.06, 0.03, 0.17
RCIN, 51563, 1469, 1616, 1136, 1600, 2030, 1027, 1499, 1500, 0, 0, 0, 0, 0, 0
CTUN, 51623, 0, 1, 249, -1.239809, -0.25, 0.05, 0.00, 0.00, -250, -29
ATT, 51662, 0.00, 9.76, -1.94, -0.41, 250.21, 257.02, 0.03, 0.17
RCIN, 51662, 1470, 1630, 1135, 1587, 2031, 1028, 1499, 1499, 0, 0, 0, 0, 0, 0
DU32, 7, 674681
CURR, 51691, 274, 59871, 1278, 1792, 4712, 232.9551
GPS, 3, 394121000, 1893, 6, 5.40, 41.3134681, -105.5816976, -0.26, 2211.24, 0.02, 0.00, -0.03, 51702
CTUN, 51722, 0, 2, 274, -1.239809, -0.26, -0.03, 0.00, 0.00, -250, -30
ATT, 51762, 0.00, 9.68, 0.00, -0.47, 250.27, 256.93, 0.01, 0.16
RCIN, 51762, 1469, 1689, 1138, 1527, 2031, 1027, 1499, 1499, 0, 0, 0, 0, 0, 0
CTUN, 51822, 0, 2, 280, -1.239809, -0.28, 0.17, 0.00, 0.00, -250, -31
ATT, 51862, 0.00, 9.63, 0.00, -0.48, 250.27, 256.87, 0.01, 0.17
RCIN, 51862, 1469, 1695, 1136, 1521, 2031, 1028, 1499, 1499, 0, 0, 0, 0, 0, 0
GPS, 3, 394121200, 1893, 6, 5.40, 41.313468, -105.5816974, -0.29, 2211.25, 0.02, 0.00, -0.03, 51903
CTUN, 51923, 0, 2, 289, -1.264817, -0.29, 0.11, 0.00, 0.00, -250, -36
ATT, 51961, 0.00, 9.62, 0.00, -0.49, 250.27, 256.78, 0.02, 0.17
RCIN, 51962, 1474, 1693, 1135, 1520, 2029, 1027, 1500, 1499, 0, 0, 0, 0, 0, 0
CTUN, 52022, 0, 2, 294, -1.289824, -0.31, 0.02, 0.00, 0.00, -250, -39
ATT, 52061, 0.00, 9.60, 0.00, -0.47, 250.27, 256.73, 0.02, 0.17
RCIN, 52062, 1470, 1694, 1137, 1523, 2030, 1028, 1500, 1499, 0, 0, 0, 0, 0, 0
GPS, 3, 394121400, 1893, 6, 5.40, 41.313468, -105.5816972, -0.32, 2211.25, 0.01, 0.00, -0.02, 52103
CTUN, 52123, 0, 2, 297, -1.289824, -0.33, -0.07, 0.00, 0.00, -250, -39
ATT, 52162, 0.00, 9.61, 0.00, -0.46, 250.27, 256.64, 0.03, 0.17
RCIN, 52162, 1469, 1693, 1136, 1520, 2030, 1027, 1500, 1499, 0, 0, 0, 0, 0, 0
CTUN, 52222, 0, 2, 295, -1.314739, -0.36, 0.08, 0.00, 0.00, -250, -39
ATT, 52262, 0.00, 9.54, 0.00, -0.51, 250.27, 256.58, 0.03, 0.16
RCIN, 52262, 1469, 1689, 1138, 1526, 2029, 1027, 1499, 1500, 0, 0, 0, 0, 0, 0
GPS, 3, 394121600, 1893, 6, 5.40, 41.3134679, -105.5816968, -0.37, 2211.28, 0.02, 0.00, -0.03, 52303
CTUN, 52324, 0, 2, 287, -1.365324, -0.37, 0.11, 0.00, 0.00, -250, -43
ATT, 52363, 0.00, 9.53, 0.00, -0.51, 250.27, 256.51, 0.03, 0.16
RCIN, 52363, 1469, 1693, 1135, 1520, 2029, 1028, 1500, 1499, 0, 0, 0, 0, 0, 0
CTUN, 52424, 0, 2, 300, -1.365324, -0.39, 0.06, 0.00, 0.00, -250, -44
ATT, 52463, 0.00, 9.53, 0.00, -0.50, 250.27, 256.44, 0.03, 0.16
RCIN, 52463, 1469, 1688, 1136, 1524, 2029, 1263, 1499, 1500, 0, 0, 0, 0, 0, 0
GPS, 3, 394121800, 1893, 6, 5.40, 41.3134678, -105.5816964, -0.41, 2211.31, 0.02, 0.00, -0.02, 52504
CTUN, 52524, 0, 2, 295, -1.390234, -0.41, 0.09, 0.00, 0.00, -250, -44
ATT, 52563, 0.00, 9.51, 0.00, -0.51, 250.27, 256.38, 0.02, 0.16
RCIN, 52563, 1473, 1693, 1135, 1521, 2031, 2028, 1500, 1499, 0, 0, 0, 0, 0, 0
CTUN, 52624, 0, 2, 297, -1.390234, -0.43, 0.09, 0.00, 0.00, -250, -44
ATT, 52663, 0.00, 9.46, 0.00, -0.52, 250.27, 256.31, 0.02, 0.16
RCIN, 52663, 1469, 1695, 1138, 1521, 2032, 2029, 1500, 1499, 0, 0, 0, 0, 0, 0
DU32, 7, 674681
CURR, 52694, 294, 62800, 1280, 1794, 4732, 237.9388
GPS, 3, 394122000, 1893, 6, 5.40, 41.3134677, -105.5816958, -0.44, 2211.35, 0.03, 0.00, -0.02, 52704
CTUN, 52724, 0, 2, 300, -1.415212, -0.45, -0.08, 0.00, 0.00, -250, -46
ATT, 52763, 0.00, 9.48, 0.00, -0.50, 250.27, 256.25, 0.02, 0.16
RCIN, 52763, 1469, 1693, 1136, 1520, 2029, 2030, 1499, 1499, 0, 0, 0, 0, 0, 0
CTUN, 52824, 0, 2, 290, -1.464877, -0.48, 0.15, 0.00, 0.00, -250, -48
ATT, 52864, 0.00, 9.49, 0.00, -0.49, 250.27, 256.18, 0.02, 0.16
RCIN, 52865, 1468, 1693, 1136, 1520, 2030, 2028, 1499, 1500, 0, 0, 0, 0, 0, 0
GPS, 3, 394122200, 1893, 6, 5.40, 41.3134676, -105.5816954, -0.49, 2211.38, 0.02, 0.00, -0.03, 52905
CTUN, 52925, 0, 2, 300, -1.493124, -0.49, 0.05, 0.00, 0.00, -250, -51
ATT, 52964, 0.00, 9.49, 0.00, -0.50, 250.27, 256.12, 0.03, 0.16
RCIN, 52965, 1469, 1692, 1136, 1522, 2031, 2029, 1500, 1499, 0, 0, 0, 0, 0, 0
CTUN, 53025, 0, 2, 299, -1.518127, -0.51, 0.17, 0.00, 0.00, -250, -53
ATT, 53065, 0.00, 9.55, 0.00, -0.51, 250.27, 256.06, 0.03, 0.16
RCIN, 53065, 1470, 1694, 1135, 1523, 2031, 2029, 1500, 1499, 0, 0, 0, 0, 0, 0
GPS, 3, 394122400, 1893, 6, 5.40, 41.3134675, -105.5816952, -0.53, 2211.39, 0.01, 0.00, -0.02, 53105
CTUN, 53125, 0, 2, 290, -1.543994, -0.53, 0.00, 0.00, 0.00, -250, -53
ATT, 53164, 0.00, 9.51, 0.00, -0.53, 250.27, 255.98, 0.02, 0.16
RCIN, 53165, 1469, 1693, 1136, 1520, 2029, 2030, 1499, 1499, 0, 0, 0, 0, 0, 0
CTUN, 53225, 0, 2, 305, -1.543994, -0.56, 0.09, 0.00, 0.00, -250, -53
ATT, 53266, 0.00, 9.51, 0.00, -0.55, 250.27, 255.92, 0.02, 0.15
RCIN, 53266, 1469, 1689, 1135, 1524, 2029, 2029, 1499, 1500, 0, 0, 0, 0, 0, 0
GPS, 3, 394122600, 1893, 6, 5.40, 41.3134674, -105.5816949, -0.57, 2211.41, 0.02, 0.00, -0.02, 53305
CTUN, 53325, 0, 2, 295, -1.593622, -0.58, 0.00, 0.00, 0.00, -250, -56
ATT, 53364, 0.00, 9.51, 0.00, -0.56, 250.27, 255.85, 0.02, 0.15
RCIN, 53364, 1468, 1695, 1137, 1522, 2030, 2028, 1499, 1500, 0, 0, 0, 0, 0, 0
CTUN, 53425, 0, 2, 287, -1.618437, -0.6, 0.07, 0.00, 0.00, -250, -55
ATT, 53466, 0.00, 9.50, 0.00, -0.55, 250.27, 255.78, 0.02, 0.15
RCIN, 53466, 1468, 1690, 1136, 1527, 2029, 2029, 1500, 1499, 0, 0, 0, 0, 0, 0
GPS, 3, 394122800, 1893, 6, 5.40, 41.3134673, -105.5816946, -0.62, 2211.42, 0.01, 0.00, -0.02, 53506
CTUN, 53526, 0, 2, 298, -1.618437, -0.62, -0.06, 0.00, 0.00, -250, -54
ATT, 53565, 0.00, 9.46, 0.00, -0.56, 250.27, 255.72, 0.01, 0.15
RCIN, 53565, 1470, 1688, 1135, 1525, 2029, 2029, 1500, 1499, 0, 0, 0, 0, 0, 0
CTUN, 53627, 0, 2, 289, -1.673079, -0.65, 0.08, 0.00, 0.00, -250, -58
ATT, 53667, 0.00, 9.44, 0.00, -0.58, 250.27, 255.66, 0.01, 0.15
RCIN, 53667, 1470, 1688, 1135, 1525, 1552, 2028, 1500, 1499, 0, 0, 0, 0, 0, 0
DU32, 7, 674681
CURR, 53696, 296, 65728, 1275, 1788, 4712, 242.9222
GPS, 3, 394123000, 1893, 6, 5.40, 41.3134671, -105.5816942, -0.67, 2211.45, 0.01, 0.00, -0.02, 53707
CTUN, 53727, 0, 2, 296, -1.673079, -0.67, 0.15, 0.00, 0.00, -250, -58
ATT, 53766, 0.00, 9.42, 0.00, -0.55, 250.27, 255.60, 0.01, 0.15
RCIN, 53766, 1469, 1694, 1137, 1523, 1554, 2029, 1500, 1499, 0, 0, 0, 0, 0, 0
MODE, Stabilize, 504
CTUN, 53826, 0, 0, 0, 0, -0.68, 0.31, 0.00, 0.00, -250, -55
ATT, 53865, 0.00, 9.46, 0.00, -0.59, 255.54, 255.54, 0.01, 0.15
RCIN, 53865, 1469, 1694, 1138, 1522, 1553, 2030, 1499, 1500, 0, 0, 0, 0, 0, 0
GPS, 3, 394123200, 1893, 6, 5.40, 41.313467, -105.5816939, -0.68, 2211.48, 0.01, 0.00, -0.02, 53905
CTUN, 53925, 0, 0, 0, 0, -0.68, 0.03, 0.00, 0.00, -250, -51
ATT, 53965, 0.00, 9.38, 0.00, -0.78, 255.46, 255.46, 0.01, 0.13
RCIN, 53965, 1469, 1694, 1138, 1521, 1555, 2029, 1499, 1500, 0, 0, 0, 0, 0, 0
CTUN, 54026, 0, 0, 0, 0, -0.69, -0.17, 0.00, 0.00, -250, -51
ATT, 54065, 0.00, 8.90, 0.00, -1.27, 255.36, 255.36, 0.01, 0.11
RCIN, 54065, 1469, 1693, 1136, 1519, 1553, 2029, 1499, 1499, 0, 0, 0, 0, 0, 0
GPS, 3, 394123400, 1893, 6, 5.40, 41.3134669, -105.5816935, -0.71, 2211.51, 0.02, 0.00, -0.02, 54105
CTUN, 54125, 0, 0, 0, 0, -0.72, -0.21, 0.00, 0.00, -250, -51
ATT, 54164, 0.00, 7.76, 0.00, -2.15, 255.29, 255.29, 0.01, 0.11
RCIN, 54165, 1470, 1688, 1136, 1520, 1553, 2028, 1500, 1499, 0, 0, 0, 0, 0, 0
CTUN, 54226, 0, 0, 0, 0, -0.74, -0.26, 0.00, 0.00, -250, -51
ATT, 54265, 0.00, 6.43, 0.00, -3.17, 255.28, 255.28, 0.01, 0.10
RCIN, 54266, 1468, 1694, 1135, 1520, 1552, 2030, 1500, 1499, 0, 0, 0, 0, 0, 0
GPS, 3, 394123600, 1893, 6, 5.40, 41.3134667, -105.5816932, -0.76, 2211.54, 0.04, 0.00, -0.03, 54305
CTUN, 54325, 0, 0, 0, 0, -0.77, -0.24, 0.00, 0.00, -250, -50
ATT, 54365, 0.00, 5.44, 0.00, -3.88, 255.29, 255.29, 0.03, 0.10
RCIN, 54365, 1468, 1693, 1138, 1522, 1553, 2028, 1499, 1500, 0, 0, 0, 0, 0, 0
CTUN, 54426, 0, 0, 0, 0, -0.79, -0.19, 0.00, 0.00, -250, -49
ATT, 54466, 0.00, 4.80, 0.00, -4.32, 255.28, 255.28, 0.03, 0.10
RCIN, 54466, 1469, 1690, 1136, 1526, 1555, 2029, 1499, 1500, 0, 0, 0, 0, 0, 0
GPS, 3, 394123800, 1893, 6, 5.40, 41.3134665, -105.5816928, -0.80, 2211.59, 0.04, 0.00, -0.03, 54506
CTUN, 54526, 0, 0, 0, 0, -0.81, -0.28, 0.00, 0.00, -250, -48
ATT, 54565, 0.00, 4.40, 0.00, -4.63, 255.27, 255.27, 0.02, 0.10
RCIN, 54565, 1469, 1695, 1137, 1522, 1554, 2030, 1499, 1499, 0, 0, 0, 0, 0, 0
CTUN, 54627, 0, 0, 0, 0, -0.83, -0.30, 0.00, 0.00, -250, -48
ATT, 54666, 0.00, 4.29, 0.00, -4.73, 255.24, 255.24, 0.02, 0.10
RCIN, 54666, 1470, 1692, 1136, 1520, 1553, 2028, 1500, 1499, 0, 0, 0, 0, 0, 0
DU32, 7, 674649
CURR, 54696, 0, 66016, 1275, 1788, 4712, 247.8871
GPS, 3, 394124000, 1893, 6, 5.40, 41.3134662, -105.581692, -0.85, 2211.65, 0.02, 0.00, -0.03, 54725
CTUN, 54726, 0, 0, 0, 0, -0.85, -0.24, 0.00, 0.00, -250, -47
ATT, 54767, 0.00, 4.21, 0.00, -4.82, 255.20, 255.20, 0.01, 0.10
RCIN, 54767, 1470, 1693, 1135, 1521, 1552, 2029, 1499, 1500, 0, 0, 0, 0, 0, 0
CTUN, 54827, 0, 0, 0, 0, -0.86, -0.36, 0.00, 0.00, -250, -46
ATT, 54866, 0.00, 4.12, 0.00, -4.90, 255.17, 255.17, 0.01, 0.10
RCIN, 54866, 1469, 1693, 1136, 1520, 1554, 2030, 1499, 1500, 0, 0, 0, 0, 0, 0
GPS, 3, 394124200, 1893, 6, 5.40, 41.3134659, -105.5816911, -0.88, 2211.74, 0.00, 0.00, -0.02, 54906
CTUN, 54926, 0, 0, 0, 0, -0.88, -0.26, 0.00, 0.00, -250, -45
ATT, 54967, 0.00, 4.05, 0.00, -4.96, 255.13, 255.13, 0.01, 0.10
RCIN, 54967, 1470, 1694, 1138, 1523, 1554, 2030, 1499, 1499, 0, 0, 0, 0, 0, 0
CTUN, 55027, 0, 0, 0, 0, -0.9, -0.14, 0.00, 0.00, -250, -45
ATT, 55067, 0.00, 4.04, 0.00, -5.01, 255.09, 255.09, 0.01, 0.09
RCIN, 55067, 1469, 1690, 1137, 1527, 1554, 2030, 1500, 1499, 0, 0, 0, 0, 0, 0
GPS, 3, 394124400, 1893, 6, 5.40, 41.3134656, -105.5816899, -0.90, 2211.83, 0.03, 0.00, -0.03, 55107
CTUN, 55127, 0, 0, 0, 0, -0.9, -0.24, 0.00, 0.00, -250, -44
ATT, 55168, 0.00, 3.98, 0.00, -5.05, 255.04, 255.04, 0.00, 0.10
RCIN, 55168, 1473, 1695, 1137, 1520, 1553, 2028, 1500, 1499, 0, 0, 0, 0, 0, 0
CTUN, 55228, 0, 0, 0, 0, -0.91, -0.25, 0.00, 0.00, -250, -45
ATT, 55267, 0.00, 3.97, 0.00, -5.08, 255.00, 255.00, 0.00, 0.10
RCIN, 55267, 1469, 1692, 1136, 1520, 1552, 2029, 1499, 1500, 0, 0, 0, 0, 0, 0
GPS, 3, 394124600, 1893, 6, 5.40, 41.3134653, -105.5816887, -0.92, 2211.94, 0.04, 0.00, -0.03, 55307
CTUN, 55327, 0, 0, 0, 0, -0.92, -0.15, 0.00, 0.00, -250, -44
ATT, 55368, 0.00, 3.91, 0.00, -5.13, 254.96, 254.96, 0.01, 0.10
RCIN, 55368, 1470, 1692, 1136, 1520, 1553, 2029, 1499, 1500, 0, 0, 0, 0, 0, 0
CTUN, 55428, 0, 0, 0, 0, -0.92, -0.27, 0.00, 0.00, -250, -43
ATT, 55467, 0.00, 3.89, 0.00, -5.18, 254.91, 254.91, 0.01, 0.10
RCIN, 55468, 1468, 1695, 1137, 1522, 1555, 2029, 1500, 1499, 0, 0, 0, 0, 0, 0
GPS, 3, 394124800, 1893, 6, 5.40, 41.3134649, -105.5816873, -0.93, 2212.06, 0.02, 0.00, -0.03, 55508
CTUN, 55529, 0, 0, 0, 0, -0.93, -0.25, 0.00, 0.00, -250, -42
ATT, 55568, 0.00, 3.86, 0.00, -5.22, 254.87, 254.87, 0.02, 0.10
RCIN, 55568, 1469, 1695, 1138, 1523, 1553, 2030, 1500, 1499, 0, 0, 0, 0, 0, 0
CTUN, 55628, 0, 0, 0, 0, -0.93, -0.30, 0.00, 0.00, -250, -41
ATT, 55668, 0.00, 3.86, 0.00, -5.26, 254.82, 254.82, 0.02, 0.10
RCIN, 55668, 1468, 1693, 1138, 1522, 1554, 2029, 1499, 1500, 0, 0, 0, 0, 0, 0
DU32, 7, 674649
CURR, 55697, 0, 66016, 1273, 1783, 4732, 252.8694
GPS, 3, 394125000, 1893, 6, 5.40, 41.3134647, -105.5816861, -0.94, 2212.16, 0.01, 0.00, -0.03, 55729
CTUN, 55731, 0, 0, 0, 0, -0.94, -0.37, 0.00, 0.00, -250, -41
ATT, 55769, 0.00, 3.84, 0.00, -5.30, 254.79, 254.79, 0.02, 0.10
RCIN, 55769, 1470, 1692, 1136, 1519, 1553, 2029, 1499, 1500, 0, 0, 0, 0, 0, 0
CTUN, 55829, 0, 0, 0, 0, -0.95, -0.33, 0.00, 0.00, -250, -40
ATT, 55868, 0.00, 3.84, 0.00, -5.34, 254.74, 254.74, 0.02, 0.09
RCIN, 55869, 1469, 1689, 1135, 1525, 1552, 2028, 1500, 1499, 0, 0, 0, 0, 0, 0
GPS, 3, 394125200, 1893, 6, 5.40, 41.3134644, -105.5816849, -0.96, 2212.25, 0.02, 0.00, -0.03, 55910
CTUN, 55930, 0, 0, 0, 0, -0.96, -0.26, 0.00, 0.00, -250, -40
ATT, 55969, 0.00, 3.81, 0.00, -5.37, 254.69, 254.69, 0.00, 0.09
RCIN, 55969, 1469, 1689, 1135, 1525, 1552, 2030, 1500, 1499, 0, 0, 0, 0, 0, 0
CTUN, 56029, 0, 0, 0, 0, -0.96, -0.18, 0.00, 0.00, -250, -39
ATT, 56069, 0.00, 3.79, 0.00, -5.40, 254.65, 254.65, 0.00, 0.09
RCIN, 56069, 1474, 1658, 1138, 1558, 1553, 2028, 1499, 1500, 0, 0, 0, 0, 0, 0
GPS, 3, 394125400, 1893, 6, 5.40, 41.3134642, -105.5816837, -0.96, 2212.34, 0.01, 0.00, -0.03, 56111
CTUN, 56131, 0, 0, 0, 0, -0.96, -0.37, 0.00, 0.00, -250, -39
ATT, 56170, 0.00, 3.76, 0.00, -5.44, 254.61, 254.61, 0.01, 0.09
RCIN, 56170, 1469, 1298, 1138, 1840, 1553, 2029, 1499, 1500, 0, 0, 0, 0, 0, 0
CTUN, 56230, 0, 0, 0, 0, -0.96, -0.34, 0.00, 0.00, -250, -38
ATT, 56269, 0.00, 3.75, 0.00, -5.46, 254.57, 254.57, 0.01, 0.09
RCIN, 56269, 1469, 1294, 1136, 1927, 1554, 2028, 1500, 1499, 0, 0, 0, 0, 0, 0
GPS, 3, 394125600, 1893, 6, 5.40, 41.313464, -105.5816826, -0.96, 2212.42, 0.01, 0.00, -0.03, 56311
CTUN, 56331, 0, 0, 0, 0, -0.97, -0.31, 0.00, 0.00, -250, -36
ATT, 56370, 0.00, 3.74, 0.00, -5.49, 254.52, 254.52, 0.01, 0.09
RCIN, 56370, 1469, 1292, 1136, 1926, 1551, 2029, 1500, 1499, 0, 0, 0, 0, 0, 0
CTUN, 56430, 0, 0, 0, 0, -0.97, -0.41, 0.00, 0.00, -250, -36
ATT, 56469, 0.00, 3.74, 0.00, -5.53, 254.47, 254.47, 0.01, 0.09
RCIN, 56470, 1468, 1294, 1137, 1926, 1553, 2028, 1499, 1500, 0, 0, 0, 0, 0, 0
GPS, 3, 394125800, 1893, 6, 5.40, 41.3134637, -105.5816814, -0.97, 2212.51, 0.02, 0.00, -0.03, 56511
CTUN, 56531, 0, 0, 0, 0, -0.97, -0.28, 0.00, 0.00, -250, -36
ATT, 56570, 0.00, 3.74, 0.00, -5.54, 254.44, 254.44, 0.00, 0.09
RCIN, 56571, 1469, 1291, 1136, 1925, 1552, 2030, 1499, 1500, 0, 0, 0, 0, 0, 0
CTUN, 56631, 0, 0, 0, 0, -0.97, -0.28, 0.00, 0.00, -250, -35
ATT, 56670, 0.00, 3.75, 0.00, -5.56, 254.39, 254.39, 0.00, 0.09
RCIN, 56670, 1469, 1294, 1135, 1928, 1554, 2029, 1500, 1499, 0, 0, 0, 0, 0, 0
PM, 43, 1000, 12245, 0, 0, 0, 0
DU32, 7, 674649
CURR, 56702, 0, 66016, 1278, 1793, 4732, 257.8663
GPS, 3, 394126000, 1893, 6, 5.40, 41.3134635, -105.5816803, -0.97, 2212.60, 0.02, 0.00, -0.03, 56712
CTUN, 56732, 0, 0, 0, 0, -0.97, -0.34, 0.00, 0.00, -250, -35
ATT, 56771, 0.00, 3.73, 0.00, -5.58, 254.34, 254.34, 0.01, 0.09
RCIN, 56771, 1468, 1292, 1135, 1925, 1552, 2029, 1499, 1500, 0, 0, 0, 0, 0, 0
CTUN, 56831, 0, 0, 0, 0, -0.96, -0.47, 0.00, 0.00, -250, -33
ATT, 56872, 0.00, 3.72, 0.00, -5.60, 254.31, 254.31, 0.01, 0.08
RCIN, 56872, 1472, 1290, 1139, 1924, 1555, 2029, 1499, 1500, 0, 0, 0, 0, 0, 0
GPS, 3, 394126200, 1893, 6, 5.40, 41.3134633, -105.5816791, -0.97, 2212.67, 0.01, 0.00, -0.02, 56912
CTUN, 56932, 0, 0, 0, 0, -0.97, -0.28, 0.00, 0.00, -250, -33
ATT, 56971, 0.00, 3.74, 0.00, -5.63, 254.26, 254.26, 0.01, 0.09
RCIN, 56971, 1469, 1292, 1136, 1925, 1552, 2029, 1500, 1499, 0, 0, 0, 0, 0, 0
CTUN, 57031, 0, 0, 0, 0, -0.97, -0.47, 0.00, 0.00, -250, -32
ATT, 57073, 0.00, 3.74, 0.00, -5.65, 254.22, 254.22, 0.01, 0.09
RCIN, 57073, 1473, 1294, 1137, 1928, 1554, 2029, 1500, 1499, 0, 0, 0, 0, 0, 0
GPS, 3, 394126400, 1893, 6, 5.40, 41.3134632, -105.5816781, -0.97, 2212.74, 0.01, 0.00, -0.02, 57112
CTUN, 57132, 0, 0, 0, 0, -0.97, -0.40, 0.00, 0.00, -250, -31
ATT, 57172, 0.00, 3.74, 0.00, -5.67, 254.18, 254.18, 0.01, 0.09
RCIN, 57172, 1470, 1296, 1135, 1927, 1554, 2030, 1499, 1500, 0, 0, 0, 0, 0, 0
CTUN, 57232, 0, 0, 0, 0, -0.97, -0.31, 0.00, 0.00, -250, -31
ATT, 57273, 0.00, 3.74, 0.00, -5.69, 254.13, 254.13, 0.01, 0.09
RCIN, 57273, 1469, 1292, 1138, 1926, 1554, 2029, 1499, 1499, 0, 0, 0, 0, 0, 0
GPS, 3, 394126600, 1893, 6, 5.40, 41.313463, -105.5816771, -0.97, 2212.81, 0.02, 0.00, -0.03, 57313
CTUN, 57333, 0, 0, 0, 0, -0.96, -0.33, 0.00, 0.00, -250, -29
ATT, 57372, 0.00, 3.75, 0.00, -5.70, 254.08, 254.08, 0.00, 0.08
RCIN, 57372, 1470, 1291, 1136, 1925, 1552, 2029, 1500, 1499, 0, 0, 0, 0, 0, 0
CTUN, 57432, 0, 0, 0, 0, -0.96, -0.34, 0.00, 0.00, -250, -29
ATT, 57473, 0.00, 3.75, 0.00, -5.71, 254.04, 254.04, 0.00, 0.09
RCIN, 57473, 1472, 1293, 1137, 1925, 1552, 2028, 1500, 1499, 0, 0, 0, 0, 0, 0
EV, 17
GPS, 3, 394126800, 1893, 6, 5.40, 41.3134629, -105.5816762, -0.95, 2212.86, 0.03, 0.00, -0.03, 57513
CTUN, 57533, 0, 0, 0, 0, -0.95, -0.32, 0.00, 0.00, -250, -28
ATT, 57572, 0.00, 3.76, 0.00, -5.73, 253.99, 253.99, 0.00, 0.09
RCIN, 57572, 1468, 1293, 1135, 1925, 1553, 2029, 1499, 1500, 0, 0, 0, 0, 0, 0
CTUN, 57634, 0, 0, 0, 0, -0.95, -0.26, 0.00, 0.00, -250, -27
ATT, 57673, 0.00, 3.75, 0.00, -5.74, 253.95, 253.95, 0.00, 0.08
RCIN, 57674, 1473, 1294, 1138, 1925, 1555, 2030, 1499, 1499, 0, 0, 0, 0, 0, 0
DU32, 7, 936793
CURR, 57704, 0, 66016, 1274, 1784, 4712, 262.8405
GPS, 3, 394127000, 1893, 6, 5.40, 41.3134627, -105.5816753, -0.93, 2212.93, 0.02, 0.00, -0.03, 57733
CTUN, 57735, 0, 0, 0, 0, -0.93, -0.44, 0.00, 0.00, -250, -26
ATT, 57772, 0.00, 3.75, 0.00, -5.75, 253.91, 253.91, 0.01, 0.08
RCIN, 57773, 1469, 1295, 1137, 1927, 1555, 2028, 1500, 1499, 0, 0, 0, 0, 0, 0
CTUN, 57835, 0, 0, 0, 0, -0.93, -0.35, 0.00, 0.00, -250, -24
ATT, 57874, 0.00, 3.75, 0.00, -5.78, 253.87, 253.87, 0.01, 0.08
RCIN, 57874, 1474, 1293, 1138, 1927, 1553, 2029, 1499, 1500, 0, 0, 0, 0, 0, 0
GPS, 3, 394127200, 1893, 6, 5.40, 41.3134626, -105.5816745, -0.92, 2212.98, 0.00, 0.00, -0.02, 57914
CTUN, 57934, 0, 0, 0, 0, -0.92, -0.24, 0.00, 0.00, -250, -22
ATT, 57973, 0.00, 3.75, 0.00, -5.81, 253.82, 253.82, 0.01, 0.09
RCIN, 57973, 1469, 1293, 1136, 1926, 1552, 2030, 1499, 1499, 0, 0, 0, 0, 0, 0
CTUN, 58035, 0, 0, 0, 0, -0.9, -0.24, 0.00, 0.00, -250, -21
ATT, 58075, 0.00, 3.77, 0.00, -5.82, 253.79, 253.79, 0.01, 0.09
RCIN, 58075, 1469, 1292, 1135, 1925, 1553, 2028, 1500, 1499, 0, 0, 0, 0, 0, 0
GPS, 3, 394127400, 1893, 6, 5.40, 41.3134624, -105.5816737, -0.89, 2213.02, 0.01, 0.00, -0.02, 58114
CTUN, 58134, 0, 0, 0, 0, -0.89, -0.35, 0.00, 0.00, -250, -19
ATT, 58173, 0.00, 3.77, 0.00, -5.84, 253.74, 253.74, 0.00, 0.08
RCIN, 58173, 1469, 1292, 1135, 1926, 1553, 2029, 1499, 1500, 0, 0, 0, 0, 0, 0
CTUN, 58235, 0, 0, 0, 0, -0.88, -0.38, 0.00, 0.00, -250, -19
ATT, 58275, 0.00, 3.75, 0.00, -5.87, 253.70, 253.70, 0.00, 0.08
RCIN, 58275, 1474, 1293, 1138, 1925, 1552, 2030, 1499, 1499, 0, 0, 0, 0, 0, 0
EV, 18
GPS, 3, 394127600, 1893, 6, 5.40, 41.3134623, -105.5816728, -0.87, 2213.08, 0.04, 0.00, -0.03, 58315
CTUN, 58335, 0, 0, 0, 0, -0.87, -0.38, 0.00, 0.00, -250, -17
ATT, 58374, 0.00, 3.76, 0.00, -5.87, 253.66, 253.66, 0.00, 0.08
RCIN, 58374, 1469, 1292, 1138, 1926, 1552, 2030, 1500, 1499, 0, 0, 0, 0, 0, 0
CTUN, 58436, 0, 0, 0, 0, -0.86, -0.30, 0.00, 0.00, -250, -16
ATT, 58475, 0.00, 3.77, 0.00, -5.88, 253.61, 253.61, 0.00, 0.08
RCIN, 58475, 1468, 1295, 1137, 1926, 1552, 2029, 1500, 1499, 0, 0, 0, 0, 0, 0
GPS, 3, 394127800, 1893, 6, 5.40, 41.3134622, -105.5816721, -0.84, 2213.12, 0.03, 0.00, -0.03, 58515
CTUN, 58535, 0, 0, 0, 0, -0.84, -0.27, 0.00, 0.00, -250, -16
ATT, 58574, 0.00, 3.77, 0.00, -5.90, 253.57, 253.57, 0.01, 0.08
RCIN, 58574, 1469, 1292, 1136, 1927, 1554, 2029, 1499, 1500, 0, 0, 0, 0, 0, 0
CTUN, 58636, 0, 0, 0, 0, -0.82, -0.40, 0.00, 0.00, -250, -15
ATT, 58676, 0.00, 3.77, 0.00, -5.92, 253.54, 253.54, 0.01, 0.08
RCIN, 58676, 1474, 1291, 1136, 1926, 1551, 2030, 1499, 1499, 0, 0, 0, 0, 0, 0
DU32, 7, 936921
CURR, 58706, 0, 66016, 1278, 1792, 4712, 267.8262
GPS, 3, 394128000, 1893, 6, 5.40, 41.3134621, -105.5816714, -0.82, 2213.15, 0.03, 0.00, -0.03, 58715
CTUN, 58735, 0, 0, 0, 0, -0.81, -0.35, 0.00, 0.00, -250, -15
ATT, 58774, 0.00, 3.78, 0.00, -5.95, 253.49, 253.49, 0.00, 0.08
RCIN, 58775, 1470, 1294, 1137, 1927, 1554, 2029, 1500, 1499, 0, 0, 0, 0, 0, 0
CTUN, 58837, 0, 0, 0, 0, -0.8, -0.39, 0.00, 0.00, -250, -13
ATT, 58876, 0.00, 3.78, 0.00, -5.95, 253.46, 253.46, 0.00, 0.08
RCIN, 58876, 1470, 1292, 1136, 1925, 1552, 2029, 1499, 1500, 0, 0, 0, 0, 0, 0
GPS, 3, 394128200, 1893, 7, 3.65, 41.3134621, -105.5816708, -0.79, 2213.18, 0.01, 0.00, -0.03, 58935
CTUN, 58937, 0, 0, 0, 0, -0.79, -0.37, 0.00, 0.00, -250, -12
ATT, 58977, 0.00, 3.80, 0.00, -5.96, 253.42, 253.42, 0.01, 0.08
RCIN, 58977, 1470, 1293, 1137, 1927, 1554, 2028, 1500, 1499, 0, 0, 0, 0, 0, 0
CTUN, 59037, 0, 0, 0, 0, -0.78, -0.45, 0.00, 0.00, -250, -12
ATT, 59076, 0.00, 3.80, 0.00, -5.99, 253.37, 253.37, 0.01, 0.08
RCIN, 59076, 1469, 1292, 1135, 1925, 1552, 2029, 1500, 1499, 0, 0, 0, 0, 0, 0
GPS, 3, 394128400, 1893, 7, 3.65, 41.3134621, -105.5816702, -0.77, 2213.21, 0.00, 0.00, -0.03, 59135
CTUN, 59137, 0, 0, 0, 0, -0.77, -0.24, 0.00, 0.00, -250, -11
ATT, 59177, 0.00, 3.79, 0.00, -6.01, 253.34, 253.34, 0.01, 0.07
RCIN, 59177, 1469, 1295, 1137, 1926, 1553, 2029, 1499, 1500, 0, 0, 0, 0, 0, 0
CTUN, 59237, 0, 0, 0, 0, -0.75, -0.33, 0.00, 0.00, -250, -10
ATT, 59276, 0.00, 3.80, 0.00, -6.04, 253.29, 253.29, 0.01, 0.08
RCIN, 59277, 1470, 1291, 1136, 1925, 1552, 2029, 1500, 1499, 0, 0, 0, 0, 0, 0
GPS, 3, 394128600, 1893, 7, 3.65, 41.313462, -105.5816697, -0.74, 2213.23, 0.03, 0.00, -0.03, 59317
CTUN, 59337, 0, 0, 0, 0, -0.74, -0.28, 0.00, 0.00, -250, -9
ATT, 59377, 0.00, 3.80, 0.00, -6.05, 253.25, 253.25, 0.01, 0.08
RCIN, 59378, 1469, 1294, 1137, 1926, 1554, 2028, 1500, 1499, 0, 0, 0, 0, 0, 0
CTUN, 59438, 0, 0, 0, 0, -0.72, -0.32, 0.00, 0.00, -250, -8
ATT, 59477, 0.00, 3.80, 0.00, -6.06, 253.20, 253.20, 0.01, 0.08
RCIN, 59477, 1470, 1292, 1136, 1927, 1554, 2029, 1499, 1500, 0, 0, 0, 0, 0, 0
GPS, 3, 394128800, 1893, 7, 3.65, 41.3134621, -105.5816694, -0.71, 2213.22, 0.04, 0.00, -0.03, 59517
CTUN, 59537, 0, 0, 0, 0, -0.71, -0.47, 0.00, 0.00, -250, -7
ATT, 59578, 0.00, 3.78, 0.00, -6.08, 253.16, 253.16, 0.00, 0.08
RCIN, 59578, 1470, 1294, 1137, 1927, 1553, 2030, 1499, 1499, 0, 0, 0, 0, 0, 0
CTUN, 59638, 0, 0, 0, 0, -0.7, -0.30, 0.00, 0.00, -250, -7
ATT, 59677, 0.00, 3.79, 0.00, -6.08, 253.13, 253.13, 0.00, 0.07
RCIN, 59677, 1469, 1292, 1135, 1925, 1552, 2029, 1500, 1499, 0, 0, 0, 0, 0, 0
DU32, 7, 936921
CURR, 59707, 0, 66016, 1272, 1784, 4732, 272.8084
GPS, 3, 394129000, 1893, 7, 3.65, 41.3134622, -105.5816691, -0.69, 2213.22, 0.03, 0.00, -0.03, 59717
CTUN, 59740, 0, 0, 0, 0, -0.68, -0.28, 0.00, 0.00, -250, -6
ATT, 59778, 0.00, 3.79, 0.00, -6.10, 253.07, 253.07, 0.01, 0.08
RCIN, 59778, 1470, 1292, 1136, 1924, 1553, 2028, 1499, 1500, 0, 0, 0, 0, 0, 0
CTUN, 59838, 0, 0, 0, 0, -0.67, -0.32, 0.00, 0.00, -250, -5
ATT, 59877, 0.00, 3.79, 0.00, -6.12, 253.04, 253.04, 0.01, 0.07
RCIN, 59878, 1470, 1291, 1136, 1925, 1552, 2030, 1499, 1499, 0, 0, 0, 0, 0, 0
GPS, 3, 394129200, 1893, 7, 3.65, 41.3134622, -105.5816688, -0.65, 2213.22, 0.02, 0.00, -0.03, 59939
CTUN, 59941, 0, 0, 0, 0, -0.65, -0.44, 0.00, 0.00, -250, -5
ATT, 59979, 0.00, 3.80, 0.00, -6.13, 252.99, 252.99, 0.00, 0.08
RCIN, 59980, 1468, 1295, 1137, 1927, 1555, 2029, 1500, 1499, 0, 0, 0, 0, 0, 0
CTUN, 60040, 0, 0, 0, 0, -0.64, -0.31, 0.00, 0.00, -250, -3
ATT, 60078, 0.00, 3.80, 0.00, -6.16, 252.94, 252.94, 0.00, 0.07
RCIN, 60078, 1474, 1293, 1138, 1927, 1555, 2028, 1499, 1500, 0, 0, 0, 0, 0, 0
GPS, 3, 394129400, 1893, 7, 3.65, 41.3134623, -105.5816686, -0.63, 2213.20, 0.01, 0.00, -0.02, 60120
CTUN, 60140, 0, 0, 0, 0, -0.63, -0.27, 0.00, 0.00, -250, -3
ATT, 60179, 0.00, 3.79, 0.00, -6.17, 252.91, 252.91, 0.00, 0.08
RCIN, 60180, 1469, 1294, 1136, 1925, 1553, 2029, 1499, 1499, 0, 0, 0, 0, 0, 0
CTUN, 60240, 0, 0, 0, 0, -0.61, -0.41, 0.00, 0.00, -250, -3
ATT, 60278, 0.00, 3.80, 0.00, -6.19, 252.87, 252.87, 0.00, 0.07
RCIN, 60279, 1469, 1292, 1135, 1925, 1552, 2029, 1499, 1500, 0, 0, 0, 0, 0, 0
GPS, 3, 394129600, 1893, 7, 3.65, 41.3134625, -105.5816684, -0.60, 2213.18, 0.02, 0.00, -0.02, 60321
CTUN, 60341, 0, 0, 0, 0, -0.6, -0.30, 0.00, 0.00, -250, -2
ATT, 60380, 0.00, 3.80, 0.00, -6.22, 252.82, 252.82, 0.01, 0.07
RCIN, 60380, 1470, 1291, 1136, 1924, 1553, 2029, 1499, 1500, 0, 0, 0, 0, 0, 0
CTUN, 60440, 0, 0, 0, 0, -0.59, -0.33, 0.00, 0.00, -250, -1
ATT, 60479, 0.00, 3.79, 0.00, -6.23, 252.79, 252.79, 0.01, 0.07
RCIN, 60480, 1473, 1293, 1138, 1927, 1553, 2029, 1500, 1499, 0, 0, 0, 0, 0, 0
GPS, 3, 394129800, 1893, 7, 3.65, 41.3134626, -105.5816683, -0.57, 2213.15, 0.01, 0.00, -0.02, 60521
CTUN, 60541, 0, 0, 0, 0, -0.57, -0.34, 0.00, 0.00, -250, -1
ATT, 60580, 0.00, 3.79, 0.00, -6.26, 252.75, 252.75, 0.00, 0.07
RCIN, 60581, 1469, 1294, 1137, 1927, 1555, 2029, 1499, 1499, 0, 0, 0, 0, 0, 0
CTUN, 60641, 0, 0, 0, 0, -0.56, -0.35, 0.00, 0.00, -250, 0
ATT, 60680, 0.00, 3.79, 0.00, -6.27, 252.70, 252.70, 0.00, 0.07
RCIN, 60680, 1470, 1293, 1136, 1925, 1555, 2030, 1499, 1499, 0, 0, 0, 0, 0, 0
DU32, 7, 936921
CURR, 60711, 0, 66016, 1272, 1784, 4712, 277.7922
GPS, 3, 394130000, 1893, 7, 3.65, 41.3134628, -105.5816682, -0.55, 2213.12, 0.03, 0.00, -0.02, 60722
CTUN, 60741, 0, 0, 0, 0, -0.55, -0.31, 0.00, 0.00, -250, 0
ATT, 60781, 0.00, 3.78, 0.00, -6.28, 252.67, 252.67, 0.01, 0.07
RCIN, 60781, 1468, 1292, 1135, 1926, 1551, 2029, 1500, 1499, 0, 0, 0, 0, 0, 0
CTUN, 60841, 0, 0, 0, 0, -0.53, -0.37, 0.00, 0.00, -250, 0
ATT, 60882, 0.00, 3.78, 0.00, -6.29, 252.62, 252.62, 0.01, 0.07
RCIN, 60882, 1469, 1291, 1136, 1925, 1553, 2028, 1499, 1500, 0, 0, 0, 0, 0, 0
GPS, 3, 394130200, 1893, 7, 3.65, 41.3134629, -105.581668, -0.52, 2213.09, 0.01, 0.00, -0.02, 60922
CTUN, 60942, 0, 0, 0, 0, -0.52, -0.32, 0.00, 0.00, -250, 0
ATT, 60981, 0.00, 3.78, 0.00, -6.31, 252.58, 252.58, 0.01, 0.07
RCIN, 60981, 1470, 1291, 1136, 1924, 1553, 2029, 1500, 1499, 0, 0, 0, 0, 0, 0
CTUN, 61041, 0, 0, 0, 0, -0.51, -0.31, 0.00, 0.00, -250, 1
ATT, 61083, 0.00, 3.80, 0.00, -6.32, 252.55, 252.55, 0.01, 0.07
RCIN, 61083, 1469, 1294, 1137, 1925, 1555, 2028, 1499, 1500, 0, 0, 0, 0, 0, 0
GPS, 3, 394130400, 1893, 7, 3.65, 41.313463, -105.5816678, -0.50, 2213.07, 0.00, 0.00, -0.02, 61122
CTUN, 61143, 0, 0, 0, 0, -0.49, -0.41, 0.00, 0.00, -250, 2
ATT, 61181, 0.00, 3.81, 0.00, -6.34, 252.50, 252.50, 0.00, 0.07
RCIN, 61182, 1470, 1297, 1138, 1916, 1554, 2029, 1499, 1500, 0, 0, 0, 0, 0, 0
CTUN, 61241, 0, 0, 0, 0, -0.48, -0.30, 0.00, 0.00, -250, 3
ATT, 61283, 0.00, 3.81, 0.00, -6.36, 252.46, 252.46, 0.00, 0.07
RCIN, 61283, 1473, 1338, 1137, 1879, 1553, 2029, 1500, 1499, 0, 0, 0, 0, 0, 0
GPS, 3, 394130600, 1893, 7, 3.65, 41.3134632, -105.5816678, -0.47, 2213.04, 0.01, 0.00, -0.01, 61323
CTUN, 61343, 0, 0, 0, 0, -0.47, -0.30, 0.00, 0.00, -250, 3
ATT, 61382, 0.00, 3.81, 0.00, -6.37, 252.43, 252.43, 0.00, 0.06
RCIN, 61382, 1469, 1424, 1135, 1789, 1552, 2029, 1499, 1500, 0, 0, 0, 0, 0, 0
CTUN, 61442, 0, 0, 0, 0, -0.46, -0.37, 0.00, 0.00, -250, 4
ATT, 61483, 0.00, 3.81, 0.00, -6.39, 252.38, 252.38, 0.00, 0.07
RCIN, 61483, 1470, 1572, 1136, 1680, 1553, 2030, 1499, 1499, 0, 0, 0, 0, 0, 0
GPS, 3, 394130800, 1893, 7, 3.65, 41.3134633, -105.5816676, -0.45, 2213.02, 0.01, 0.00, -0.01, 61523
CTUN, 61543, 0, 0, 0, 0, -0.45, -0.39, 0.00, 0.00, -250, 4
ATT, 61582, 0.00, 3.80, 0.00, -6.40, 252.35, 252.35, 0.01, 0.07
RCIN, 61582, 1468, 1645, 1136, 1572, 1553, 2029, 1500, 1499, 0, 0, 0, 0, 0, 0
CTUN, 61642, 0, 0, 0, 0, -0.44, -0.27, 0.00, 0.00, -250, 5
ATT, 61683, 0.00, 3.80, 0.00, -6.42, 252.32, 252.32, 0.01, 0.07
RCIN, 61684, 1468, 1694, 1139, 1521, 1553, 2029, 1499, 1500, 0, 0, 0, 0, 0, 0
DU32, 7, 936921
CURR, 61713, 0, 66016, 1274, 1786, 4732, 282.7763
GPS, 3, 394131000, 1893, 7, 3.65, 41.3134634, -105.5816673, -0.42, 2213.01, 0.02, 0.00, -0.01, 61723
CTUN, 61744, 0, 0, 0, 0, -0.42, -0.41, 0.00, 0.00, -250, 6
ATT, 61782, 0.00, 3.82, 0.00, -6.43, 252.27, 252.27, 0.01, 0.07
RCIN, 61782, 1470, 1695, 1138, 1520, 1554, 2030, 1499, 1499, 0, 0, 0, 0, 0, 0
CTUN, 61844, 0, 0, 0, 0, -0.41, -0.46, 0.00, 0.00, -250, 6
ATT, 61884, 0.00, 3.80, 0.00, -6.44, 252.23, 252.23, 0.01, 0.06
RCIN, 61884, 1468, 1692, 1136, 1520, 1555, 2029, 1500, 1499, 0, 0, 0, 0, 0, 0
GPS, 3, 394131200, 1893, 7, 3.65, 41.3134635, -105.581667, -0.41, 2213.02, 0.01, 0.00, -0.02, 61924
CTUN, 61944, 0, 0, 0, 0, -0.41, -0.40, 0.00, 0.00, -250, 7
ATT, 61983, 0.00, 3.80, 0.00, -6.45, 252.20, 252.20, 0.00, 0.07
RCIN, 61983, 1469, 1692, 1136, 1519, 1553, 2029, 1499, 1499, 0, 0, 0, 0, 0, 0
CTUN, 62045, 0, 0, 0, 0, -0.4, -0.22, 0.00, 0.00, -250, 7
ATT, 62084, 0.00, 3.80, 0.00, -6.47, 252.15, 252.15, 0.00, 0.07
RCIN, 62084, 1469, 1693, 1135, 1520, 1552, 2029, 1500, 1499, 0, 0, 0, 0, 0, 0
GPS, 3, 394131400, 1893, 7, 3.65, 41.3134636, -105.5816668, -0.38, 2213.01, 0.01, 0.00, -0.01, 62124
CTUN, 62144, 0, 0, 0, 0, -0.38, -0.35, 0.00, 0.00, -250, 8
ATT, 62183, 0.00, 3.82, 0.00, -6.48, 252.12, 252.12, 0.00, 0.07
RCIN, 62184, 1470, 1692, 1136, 1520, 1555, 2029, 1499, 1500, 0, 0, 0, 0, 0, 0
CTUN, 62245, 0, 0, 0, 0, -0.37, -0.47, 0.00, 0.00, -250, 8
ATT, 62285, 0.00, 3.82, 0.00, -6.49, 252.08, 252.08, 0.00, 0.06
RCIN, 62285, 1469, 1695, 1137, 1523, 1553, 2029, 1500, 1499, 0, 0, 0, 0, 0, 0
GPS, 3, 394131600, 1893, 7, 3.65, 41.3134636, -105.5816666, -0.37, 2213.01, 0.02, 0.00, -0.01, 62324
CTUN, 62344, 0, 0, 0, 0, -0.37, -0.36, 0.00, 0.00, -250, 8
ATT, 62384, 0.00, 3.83, 0.00, -6.51, 252.04, 252.04, 0.02, 0.07
RCIN, 62384, 1468, 1694, 1137, 1522, 1554, 2029, 1499, 1500, 0, 0, 0, 0, 0, 0
CTUN, 62446, 0, 0, 0, 0, -0.36, -0.38, 0.00, 0.00, -250, 8
ATT, 62485, 0.00, 3.80, 0.00, -6.51, 252.01, 252.01, 0.02, 0.06
RCIN, 62485, 1469, 1692, 1136, 1520, 1551, 2029, 1499, 1499, 0, 0, 0, 0, 0, 0
GPS, 3, 394131800, 1893, 7, 3.65, 41.3134637, -105.5816664, -0.35, 2213.01, 0.03, 0.00, -0.02, 62525
CTUN, 62545, 0, 0, 0, 0, -0.35, -0.46, 0.00, 0.00, -250, 9
ATT, 62584, 0.00, 3.81, 0.00, -6.52, 251.96, 251.96, 0.01, 0.06
RCIN, 62584, 1469, 1693, 1135, 1521, 1551, 2029, 1500, 1499, 0, 0, 0, 0, 0, 0
CTUN, 62646, 0, 0, 0, 0, -0.34, -0.28, 0.00, 0.00, -250, 9
ATT, 62686, 0.00, 3.79, 0.00, -6.52, 251.94, 251.94, 0.01, 0.06
RCIN, 62686, 1469, 1693, 1136, 1520, 1552, 2029, 1499, 1500, 0, 0, 0, 0, 0, 0
DU32, 7, 936921
CURR, 62715, 0, 66016, 1279, 1792, 4732, 287.7603
GPS, 3, 394132000, 1893, 7, 3.65, 41.3134637, -105.5816664, -0.33, 2212.99, 0.03, 0.00, -0.02, 62725
CTUN, 62745, 0, 0, 0, 0, -0.33, -0.42, 0.00, 0.00, -250, 10
ATT, 62784, 0.00, 3.79, 0.00, -6.54, 251.89, 251.89, 0.01, 0.06
RCIN, 62784, 1468, 1694, 1138, 1523, 1553, 2029, 1500, 1499, 0, 0, 0, 0, 0, 0
CTUN, 62847, 0, 0, 0, 0, -0.32, -0.32, 0.00, 0.00, -250, 10
ATT, 62886, 0.00, 3.80, 0.00, -6.56, 251.86, 251.86, 0.01, 0.06
RCIN, 62886, 1469, 1692, 1136, 1522, 1554, 2029, 1499, 1500, 0, 0, 0, 0, 0, 0
GPS, 3, 394132200, 1893, 7, 3.65, 41.3134638, -105.5816662, -0.31, 2212.98, 0.03, 0.00, -0.02, 62925
CTUN, 62946, 0, 0, 0, 0, -0.31, -0.33, 0.00, 0.00, -250, 10
ATT, 62987, 0.00, 3.80, 0.00, -6.56, 251.83, 251.83, 0.01, 0.06
RCIN, 62987, 1470, 1694, 1137, 1520, 1554, 2030, 1499, 1499, 0, 0, 0, 0, 0, 0
CTUN, 63047, 0, 0, 0, 0, -0.3, -0.50, 0.00, 0.00, -250, 10
ATT, 63086, 0.00, 3.80, 0.00, -6.57, 251.78, 251.78, 0.01, 0.06
RCIN, 63086, 1469, 1693, 1136, 1520, 1552, 2027, 1499, 1500, 0, 0, 0, 0, 0, 0
GPS, 3, 394132400, 1893, 7, 3.65, 41.3134639, -105.5816661, -0.30, 2212.96, 0.02, 0.00, -0.02, 63126
CTUN, 63146, 0, 0, 0, 0, -0.3, -0.37, 0.00, 0.00, -250, 10
ATT, 63187, 0.00, 3.80, 0.00, -6.59, 251.76, 251.76, 0.00, 0.06
RCIN, 63187, 1470, 1692, 1136, 1520, 1552, 2029, 1499, 1499, 0, 0, 0, 0, 0, 0
CTUN, 63247, 0, 0, 0, 0, -0.3, -0.32, 0.00, 0.00, -250, 10
ATT, 63287, 0.00, 3.81, 0.00, -6.60, 251.72, 251.72, 0.00, 0.06
RCIN, 63287, 1469, 1693, 1135, 1521, 1552, 2029, 1500, 1499, 0, 0, 0, 0, 0, 0
GPS, 3, 394132600, 1893, 7, 3.65, 41.313464, -105.581666, -0.29, 2212.94, 0.01, 0.00, -0.02, 63326
CTUN, 63346, 0, 0, 0, 0, -0.29, -0.40, 0.00, 0.00, -250, 10
ATT, 63387, 0.00, 3.83, 0.00, -6.62, 251.68, 251.68, 0.01, 0.06
RCIN, 63388, 1470, 1694, 1138, 1522, 1555, 2029, 1499, 1500, 0, 0, 0, 0, 0, 0
CTUN, 63448, 0, 0, 0, 0, -0.28, -0.39, 0.00, 0.00, -250, 11
ATT, 63487, 0.00, 3.82, 0.00, -6.63, 251.65, 251.65, 0.01, 0.06
RCIN, 63487, 1469, 1695, 1137, 1521, 1552, 2029, 1500, 1499, 0, 0, 0, 0, 0, 0
GPS, 3, 394132800, 1893, 7, 3.65, 41.3134641, -105.5816659, -0.28, 2212.92, 0.03, 0.00, -0.02, 63527
CTUN, 63547, 0, 0, 0, 0, -0.28, -0.34, 0.00, 0.00, -250, 12
ATT, 63588, 0.00, 3.82, 0.00, -6.65, 251.60, 251.60, 0.01, 0.06
RCIN, 63588, 1469, 1694, 1138, 1522, 1555, 2029, 1499, 1500, 0, 0, 0, 0, 0, 0
CTUN, 63648, 0, 0, 0, 0, -0.27, -0.33, 0.00, 0.00, -250, 11
ATT, 63687, 0.00, 3.84, 0.00, -6.65, 251.57, 251.57, 0.01, 0.06
RCIN, 63687, 1469, 1693, 1135, 1521, 1553, 2029, 1500, 1499, 0, 0, 0, 0, 0, 0
DU32, 7, 936921
CURR, 63717, 0, 66016, 1278, 1793, 4712, 292.7523
GPS, 3, 394133000, 1893, 7, 3.65, 41.3134642, -105.5816659, -0.26, 2212.91, 0.02, 0.00, -0.02, 63727
CTUN, 63749, 0, 0, 0, 0, -0.26, -0.49, 0.00, 0.00, -250, 11
ATT, 63788, 0.00, 3.82, 0.00, -6.65, 251.54, 251.54, 0.01, 0.06
RCIN, 63788, 1469, 1701, 1137, 1518, 1555, 2029, 1499, 1500, 0, 0, 0, 0, 0, 0
CTUN, 63848, 0, 0, 0, 0, -0.26, -0.27, 0.00, 0.00, -250, 11
ATT, 63888, 0.00, 3.83, 0.00, -6.66, 251.50, 251.50, 0.01, 0.06
RCIN, 63888, 1469, 1705, 1136, 1508, 1553, 2029, 1499, 1500, 0, 0, 0, 0, 0, 0
GPS, 3, 394133200, 1893, 7, 3.65, 41.3134643, -105.5816657, -0.25, 2212.90, 0.03, 0.00, -0.02, 63927
CTUN, 63950, 0, 0, 0, 0, -0.25, -0.30, 0.00, 0.00, -250, 12
ATT, 63988, 0.00, 3.82, 0.00, -6.67, 251.47, 251.47, 0.01, 0.06
RCIN, 63989, 1469, 1707, 1137, 1510, 1555, 2029, 1500, 1499, 0, 0, 0, 0, 0, 0
CTUN, 64049, 0, 0, 0, 0, -0.24, -0.40, 0.00, 0.00, -250, 12
ATT, 64088, 0.00, 3.82, 0.00, -6.68, 251.44, 251.44, 0.01, 0.05
RCIN, 64088, 1470, 1692, 1136, 1520, 1551, 2029, 1499, 1500, 0, 0, 0, 0, 0, 0
GPS, 3, 394133400, 1893, 7, 3.65, 41.3134644, -105.5816655, -0.23, 2212.91, 0.02, 0.00, -0.03, 64128
CTUN, 64150, 0, 0, 0, 0, -0.23, -0.37, 0.00, 0.00, -250, 13
ATT, 64189, 0.00, 3.82, 0.00, -6.71, 251.40, 251.40, 0.00, 0.06
RCIN, 64189, 1469, 1699, 1137, 1526, 1554, 2029, 1500, 1499, 0, 0, 0, 0, 0, 0
CTUN, 64249, 0, 0, 0, 0, -0.22, -0.36, 0.00, 0.00, -250, 13
ATT, 64288, 0.00, 3.83, 0.00, -6.70, 251.37, 251.37, 0.00, 0.06
RCIN, 64289, 1473, 1692, 1148, 1519, 1553, 2030, 1499, 1500, 0, 0, 0, 0, 0, 0
GPS, 3, 394133600, 1893, 7, 3.65, 41.3134644, -105.5816653, -0.22, 2212.91, 0.02, 0.00, -0.02, 64330
CTUN, 64350, 0, 0, 0, 0, -0.22, -0.42, 0.00, 0.00, -250, 13
EV, 15
ATT, 64390, 0.00, 3.83, 0.00, -6.72, 251.32, 251.32, 0.01, 0.05
RCIN, 64390, 1473, 1703, 1166, 1518, 1554, 2029, 1500, 1499, 0, 0, 0, 0, 0, 0
CTUN, 64451, 134, 0, 135, 0, -0.22, -0.42, 0.00, 0.00, -250, 13
ATT, 64490, 0.00, 3.79, 0.00, -6.62, 251.32, 251.31, 0.01, 0.05
RCIN, 64491, 1474, 1688, 1164, 1520, 1555, 2029, 1499, 1500, 0, 0, 0, 0, 0, 0
GPS, 3, 394133800, 1893, 7, 3.65, 41.3134645, -105.5816651, -0.21, 2212.91, 0.01, 0.00, -0.02, 64532
CTUN, 64552, 144, 0, 144, 0, -0.21, -0.26, 0.00, 0.00, -250, 14
ATT, 64591, 0.00, 3.80, 0.00, -6.55, 251.32, 251.26, 0.00, 0.12
RCIN, 64592, 1470, 1694, 1173, 1521, 1554, 2029, 1500, 1499, 0, 0, 0, 0, 0, 0
CTUN, 64652, 143, 0, 143, 0, -0.2, -0.31, 0.00, 0.00, -250, 12
ATT, 64690, 0.00, 3.83, 0.00, -6.43, 251.22, 251.22, 0.00, 0.11
RCIN, 64691, 1473, 1693, 1135, 1520, 1553, 2029, 1499, 1500, 0, 0, 0, 0, 0, 0
DU32, 7, 412665
CURR, 64721, 0, 66429, 1277, 1791, 4712, 297.7357
GPS, 3, 394134000, 1893, 7, 3.65, 41.3134646, -105.581665, -0.20, 2212.90, 0.01, 0.00, -0.02, 64731
CTUN, 64751, 0, 0, 0, 0, -0.2, -0.23, 0.00, 0.00, -250, 10
ATT, 64790, 0.00, 3.86, 0.00, -6.46, 251.16, 251.16, 0.01, 0.10
RCIN, 64790, 1470, 1610, 1135, 1589, 1552, 2030, 1499, 1499, 0, 0, 0, 0, 0, 0
CTUN, 64850, 0, 0, 0, 0, -0.19, -0.14, 0.00, 0.00, -250, 10
ATT, 64891, 0.00, 3.79, 0.00, -6.53, 251.12, 251.12, 0.01, 0.05
RCIN, 64891, 1469, 1401, 1135, 1813, 1553, 2029, 1499, 1499, 0, 0, 0, 0, 0, 0
GPS, 3, 394134200, 1893, 7, 3.65, 41.3134646, -105.5816649, -0.17, 2212.90, 0.02, 0.00, -0.02, 64931
CTUN, 64951, 0, 0, 0, 0, -0.17, -0.19, 0.00, 0.00, -250, 10
ATT, 64991, 0.00, 3.77, 0.00, -6.61, 251.08, 251.08, 0.00, 0.05
RCIN, 64991, 1474, 1293, 1137, 1925, 1554, 2029, 1499, 1499, 0, 0, 0, 0, 0, 0
CTUN, 65051, 0, 0, 0, 0, -0.16, -0.20, 0.00, 0.00, -250, 11
ATT, 65091, 0.00, 3.79, 0.00, -6.65, 251.04, 251.04, 0.00, 0.05
RCIN, 65091, 1469, 1295, 1137, 1927, 1555, 2029, 1499, 1500, 0, 0, 0, 0, 0, 0
GPS, 3, 394134400, 1893, 7, 3.65, 41.3134647, -105.5816647, -0.15, 2212.90, 0.02, 0.00, -0.02, 65132
CTUN, 65152, 0, 0, 0, 0, -0.15, -0.37, 0.00, 0.00, -250, 12
ATT, 65191, 0.00, 3.79, 0.00, -6.68, 250.99, 250.99, 0.01, 0.05
RCIN, 65191, 1470, 1294, 1137, 1927, 1554, 2030, 1499, 1499, 0, 0, 0, 0, 0, 0
CTUN, 65251, 0, 0, 0, 0, -0.15, -0.52, 0.00, 0.00, -250, 12
ATT, 65293, 0.00, 3.76, 0.00, -6.72, 250.96, 250.96, 0.01, 0.05
RCIN, 65293, 1469, 1284, 1135, 1928, 1553, 2029, 1499, 1500, 0, 0, 0, 0, 0, 0
GPS, 3, 394134600, 1893, 7, 3.65, 41.3134647, -105.5816647, -0.16, 2212.89, 0.01, 0.00, -0.02, 65332
CTUN, 65352, 0, 0, 0, 0, -0.16, -0.46, 0.00, 0.00, -250, 12
ATT, 65391, 0.00, 3.75, 0.00, -6.74, 250.92, 250.92, 0.01, 0.05
RCIN, 65391, 1470, 1291, 1136, 1925, 1553, 2029, 1499, 1499, 0, 0, 0, 0, 0, 0
CTUN, 65451, 0, 0, 0, 0, -0.16, -0.33, 0.00, 0.00, -250, 12
ATT, 65493, 0.00, 3.73, 0.00, -6.77, 250.88, 250.88, 0.01, 0.05
RCIN, 65493, 1469, 1284, 1135, 1929, 1555, 2029, 1499, 1500, 0, 0, 0, 0, 0, 0
GPS, 3, 394134800, 1893, 7, 3.65, 41.3134647, -105.5816646, -0.16, 2212.88, 0.01, 0.00, -0.01, 65532
CTUN, 65552, 0, 0, 0, 0, -0.16, -0.34, 0.00, 0.00, -250, 12
ATT, 65591, 0.00, 3.74, 0.00, -6.78, 250.85, 250.85, 0.00, 0.05
RCIN, 65592, 1470, 1285, 1138, 1931, 1554, 2030, 1499, 1499, 0, 0, 0, 0, 0, 0
CTUN, 65652, 0, 0, 0, 0, -0.16, -0.42, 0.00, 0.00, -250, 13
ATT, 65693, 0.00, 3.75, 0.00, -6.78, 250.81, 250.81, 0.00, 0.05
RCIN, 65693, 1469, 1286, 1137, 1931, 1555, 2029, 1499, 1500, 0, 0, 0, 0, 0, 0
DU32, 7, 936921
CURR, 65723, 0, 66429, 1279, 1793, 4732, 302.7204
GPS, 3, 394135000, 1893, 7, 3.65, 41.3134648, -105.5816646, -0.16, 2212.87, 0.01, 0.00, -0.01, 65733
CTUN, 65753, 0, 0, 0, 0, -0.16, -0.41, 0.00, 0.00, -250, 13
ATT, 65792, 0.00, 3.76, 0.00, -6.79, 250.78, 250.78, 0.00, 0.05
RCIN, 65792, 1469, 1284, 1136, 1929, 1553, 2029, 1499, 1499, 0, 0, 0, 0, 0, 0
CTUN, 65852, 0, 0, 0, 0, -0.16, -0.42, 0.00, 0.00, -250, 13
ATT, 65894, 0.00, 3.75, 0.00, -6.81, 250.75, 250.75, 0.00, 0.04
RCIN, 65894, 1468, 1284, 1136, 1929, 1553, 2029, 1499, 1500, 0, 0, 0, 0, 0, 0
GPS, 3, 394135200, 1893, 7, 3.65, 41.3134648, -105.5816646, -0.16, 2212.86, 0.01, 0.00, -0.02, 65933
CTUN, 65953, 0, 0, 0, 0, -0.16, -0.37, 0.00, 0.00, -250, 14
ATT, 65993, 0.00, 3.75, 0.00, -6.83, 250.72, 250.72, 0.01, 0.05
RCIN, 65993, 1470, 1284, 1135, 1929, 1552, 2029, 1500, 1499, 0, 0, 0, 0, 0, 0
CTUN, 66054, 0, 0, 0, 0, -0.16, -0.34, 0.00, 0.00, -250, 14
ATT, 66094, 0.00, 3.75, 0.00, -6.84, 250.68, 250.68, 0.01, 0.05
RCIN, 66094, 1470, 1285, 1138, 1929, 1553, 2029, 1499, 1500, 0, 0, 0, 0, 0, 0
GPS, 3, 394135400, 1893, 7, 3.65, 41.3134648, -105.5816645, -0.15, 2212.86, 0.02, 0.00, -0.02, 66133
CTUN, 66154, 0, 0, 0, 0, -0.15, -0.42, 0.00, 0.00, -250, 14
ATT, 66193, 0.00, 3.74, 0.00, -6.85, 250.65, 250.65, 0.01, 0.05
RCIN, 66194, 1469, 1295, 1137, 1927, 1555, 2029, 1500, 1499, 0, 0, 0, 0, 0, 0
CTUN, 66255, 0, 0, 0, 0, -0.15, -0.45, 0.00, 0.00, -250, 14
ATT, 66295, 0.00, 3.75, 0.00, -6.85, 250.62, 250.62, 0.01, 0.05
RCIN, 66295, 1469, 1286, 1137, 1930, 1554, 2029, 1499, 1500, 0, 0, 0, 0, 0, 0
GPS, 3, 394135600, 1893, 7, 3.65, 41.3134649, -105.5816646, -0.15, 2212.84, 0.01, 0.00, -0.01, 66334
CTUN, 66354, 0, 0, 0, 0, -0.15, -0.47, 0.00, 0.00, -250, 15
ATT, 66393, 0.00, 3.75, 0.00, -6.87, 250.58, 250.58, 0.01, 0.05
RCIN, 66393, 1469, 1284, 1135, 1929, 1552, 2029, 1500, 1499, 0, 0, 0, 0, 0, 0
CTUN, 66455, 0, 0, 0, 0, -0.16, -0.43, 0.00, 0.00, -250, 15
ATT, 66495, 0.00, 3.75, 0.00, -6.88, 250.54, 250.54, 0.01, 0.05
RCIN, 66495, 1469, 1284, 1136, 1929, 1552, 2030, 1499, 1500, 0, 0, 0, 0, 0, 0
GPS, 3, 394135800, 1893, 7, 3.65, 41.3134649, -105.5816645, -0.16, 2212.85, 0.02, 0.00, -0.01, 66534
CTUN, 66554, 0, 0, 0, 0, -0.16, -0.50, 0.00, 0.00, -250, 15
ATT, 66593, 0.00, 3.75, 0.00, -6.90, 250.51, 250.51, 0.02, 0.04
RCIN, 66594, 1469, 1284, 1135, 1929, 1553, 2029, 1500, 1499, 0, 0, 0, 0, 0, 0
CTUN, 66656, 0, 0, 0, 0, -0.16, -0.35, 0.00, 0.00, -250, 15
ATT, 66695, 0.00, 3.74, 0.00, -6.90, 250.47, 250.47, 0.02, 0.04
RCIN, 66695, 1470, 1286, 1137, 1931, 1552, 2030, 1499, 1499, 0, 0, 0, 0, 0, 0
PM, 52, 1000, 12001, 0, 0, 0, 0
DU32, 7, 936921
CURR, 66725, 0, 66429, 1278, 1793, 4732, 307.7065
GPS, 3, 394136000, 1893, 7, 3.64, 41.3134649, -105.5816645, -0.15, 2212.84, 0.03, 0.00, -0.02, 66735
CTUN, 66755, 0, 0, 0, 0, -0.15, -0.26, 0.00, 0.00, -250, 16
ATT, 66794, 0.00, 3.75, 0.00, -6.90, 250.44, 250.44, 0.01, 0.04
RCIN, 66794, 1473, 1286, 1137, 1931, 1554, 2029, 1500, 1499, 0, 0, 0, 0, 0, 0
CTUN, 66856, 0, 0, 0, 0, -0.14, -0.38, 0.00, 0.00, -250, 16
ATT, 66896, 0.00, 3.75, 0.00, -6.91, 250.41, 250.41, 0.01, 0.04
RCIN, 66896, 1470, 1293, 1137, 1926, 1553, 2029, 1500, 1499, 0, 0, 0, 0, 0, 0
GPS, 3, 394136200, 1893, 7, 3.64, 41.3134649, -105.5816644, -0.14, 2212.85, 0.04, 0.00, -0.03, 66935
CTUN, 66956, 0, 0, 0, 0, -0.14, -0.43, 0.00, 0.00, -250, 17
ATT, 66994, 0.00, 3.74, 0.00, -6.91, 250.37, 250.37, 0.01, 0.04
RCIN, 66994, 1469, 1284, 1135, 1929, 1553, 2028, 1499, 1500, 0, 0, 0, 0, 0, 0
CTUN, 67056, 0, 0, 0, 0, -0.14, -0.49, 0.00, 0.00, -250, 17
ATT, 67096, 0.00, 3.75, 0.00, -6.92, 250.34, 250.34, 0.01, 0.04
RCIN, 67097, 1473, 1291, 1136, 1925, 1552, 2029, 1499, 1499, 0, 0, 0, 0, 0, 0
GPS, 3, 394136400, 1893, 7, 3.64, 41.3134649, -105.5816644, -0.14, 2212.86, 0.02, 0.00, -0.03, 67135
CTUN, 67156, 0, 0, 0, 0, -0.14, -0.43, 0.00, 0.00, -250, 16
ATT, 67197, 0.00, 3.76, 0.00, -6.92, 250.32, 250.32, 0.00, 0.04
RCIN, 67198, 1469, 1291, 1136, 1925, 1553, 2029, 1499, 1500, 0, 0, 0, 0, 0, 0
CTUN, 67257, 0, 0, 0, 0, -0.14, -0.40, 0.00, 0.00, -250, 16
ATT, 67296, 0.00, 3.76, 0.00, -6.93, 250.28, 250.28, 0.00, 0.04
RCIN, 67296, 1470, 1286, 1138, 1930, 1553, 1252, 1499, 1500, 0, 0, 0, 0, 0, 0
GPS, 3, 394136600, 1893, 7, 3.64, 41.3134649, -105.5816643, -0.14, 2212.86, 0.01, 0.00, -0.03, 67336
CTUN, 67356, 0, 0, 0, 0, -0.14, -0.29, 0.00, 0.00, -250, 16
ATT, 67397, 0.00, 3.78, 0.00, -6.95, 250.25, 250.25, 0.01, 0.04
RCIN, 67397, 1469, 1292, 1135, 1927, 1554, 1252, 1499, 1499, 0, 0, 0, 0, 0, 0
CTUN, 67457, 0, 0, 0, 0, -0.13, -0.49, 0.00, 0.00, -250, 16
ATT, 67497, 0.00, 3.77, 0.00, -6.96, 250.23, 250.23, 0.01, 0.04
RCIN, 67497, 1470, 1294, 1137, 1927, 1554, 1032, 1499, 1500, 0, 0, 0, 0, 0, 0
GPS, 3, 394136800, 1893, 7, 3.64, 41.3134649, -105.5816642, -0.13, 2212.86, 0.02, 0.00, -0.02, 67536
CTUN, 67556, 0, 0, 0, 0, -0.13, -0.47, 0.00, 0.00, -250, 16
ATT, 67598, 0.00, 3.78, 0.00, -6.97, 250.19, 250.19, 0.01, 0.04
RCIN, 67598, 1469, 1291, 1136, 1925, 1554, 1028, 1499, 1500, 0, 0, 0, 0, 0, 0
CTUN, 67657, 0, 0, 0, 0, -0.13, -0.40, 0.00, 0.00, -250, 17
ATT, 67697, 0.00, 3.77, 0.00, -6.98, 250.16, 250.16, 0.01, 0.04
RCIN, 67697, 1469, 1292, 1138, 1927, 1555, 1027, 1500, 1499, 0, 0, 0, 0, 0, 0
DU32, 7, 936921
CURR, 67727, 0, 66429, 1272, 1783, 4732, 312.6932
GPS, 3, 394137000, 1893, 7, 3.64, 41.3134649, -105.5816641, -0.13, 2212.88, 0.04, 0.00, -0.03, 67736
CTUN, 67757, 0, 0, 0, 0, -0.13, -0.42, 0.00, 0.00, -250, 17
ATT, 67798, 0.00, 3.77, 0.00, -6.97, 250.13, 250.13, 0.02, 0.04
RCIN, 67798, 1469, 1292, 1135, 1926, 1553, 1027, 1500, 1499, 0, 0, 0, 0, 0, 0
CTUN, 67858, 0, 0, 0, 0, -0.13, -0.36, 0.00, 0.00, -250, 17
ATT, 67898, 0.00, 3.76, 0.00, -6.98, 250.10, 250.10, 0.02, 0.04
RCIN, 67898, 1469, 1294, 1137, 1928, 1554, 1031, 1499, 1499, 0, 0, 0, 0, 0, 0
GPS, 3, 394137200, 1893, 7, 3.64, 41.3134649, -105.581664, -0.12, 2212.88, 0.03, 0.00, -0.03, 67937
CTUN, 67960, 0, 0, 0, 0, -0.12, -0.37, 0.00, 0.00, -250, 18
ATT, 67998, 0.00, 3.76, 0.00, -6.99, 250.07, 250.07, 0.00, 0.04
RCIN, 67998, 1470, 1291, 1136, 1927, 1555, 1027, 1499, 1500, 0, 0, 0, 0, 0, 0
CTUN, 68058, 0, 0, 0, 0, -0.12, -0.41, 0.00, 0.00, -250, 18
ATT, 68098, 0.00, 3.77, 0.00, -6.99, 250.04, 250.04, 0.00, 0.04
RCIN, 68098, 1469, 1293, 1139, 1925, 1553, 1040, 1499, 1500, 0, 0, 0, 0, 0, 0
GPS, 3, 394137400, 1893, 7, 3.64, 41.3134649, -105.581664, -0.12, 2212.89, 0.01, 0.00, -0.03, 68137
CTUN, 68160, 0, 0, 0, 0, -0.11, -0.40, 0.00, 0.00, -250, 19
ATT, 68198, 0.00, 3.77, 0.00, -7.01, 250.01, 250.01, 0.01, 0.04
RCIN, 68199, 1469, 1293, 1136, 1927, 2031, 1027, 1499, 1499, 0, 0, 0, 0, 0, 0
CTUN, 68259, 0, 0, 0, 0, -0.11, -0.33, 0.00, 0.00, -250, 20
ATT, 68298, 0.00, 3.77, 0.00, -7.01, 249.98, 249.98, 0.01, 0.04
RCIN, 68298, 1470, 1296, 1134, 1927, 2031, 1032, 1499, 1500, 0, 0, 0, 0, 0, 0
GPS, 3, 394137600, 1893, 7, 3.64, 41.3134648, -105.5816638, -0.10, 2212.91, 0.03, 0.00, -0.03, 68340
MODE, AltHold, 504
CTUN, 68361, 0, 0, 0, 0.1013603, -0.1, -0.42, 0.00, 0.00, -250, 20
ATT, 68399, 0.00, 3.77, 0.00, -7.02, 249.96, 249.96, 0.02, 0.04
RCIN, 68400, 1469, 1294, 1136, 1927, 2032, 1027, 1500, 1499, 0, 0, 0, 0, 0, 0
CTUN, 68459, 0, 0, 0, -0.103063, -0.1, -0.61, 0.00, 0.00, -250, 20
ATT, 68498, 0.00, 3.77, 0.00, -7.02, 249.92, 249.92, 0.02, 0.04
RCIN, 68499, 1469, 1294, 1137, 1927, 2029, 1028, 1499, 1499, 0, 0, 0, 0, 0, 0
GPS, 3, 394137800, 1893, 7, 3.64, 41.3134648, -105.5816636, -0.11, 2212.93, 0.01, 0.00, -0.03, 68540
CTUN, 68560, 0, 0, 0, -0.111987, -0.11, -0.40, 0.00, 0.00, -250, 20
ATT, 68600, 0.00, 3.76, 0.00, -7.03, 249.90, 249.90, 0.01, 0.03
RCIN, 68600, 1469, 1292, 1138, 1927, 2031, 1028, 1499, 1500, 0, 0, 0, 0, 0, 0
CTUN, 68660, 0, 0, 0, -0.106741, -0.1, -0.38, 0.00, 0.00, -250, 21
ATT, 68700, 0.00, 3.75, 0.00, -7.04, 249.87, 249.87, 0.01, 0.04
RCIN, 68700, 1469, 1293, 1135, 1925, 2030, 1027, 1500, 1499, 0, 0, 0, 0, 0, 0
DU32, 7, 936921
CURR, 68731, 0, 66429, 1272, 1784, 4732, 317.6739
GPS, 3, 394138000, 1893, 7, 3.64, 41.3134648, -105.5816634, -0.10, 2212.94, 0.02, 0.00, -0.02, 68740
CTUN, 68761, 0, 0, 0, -0.1005408, -0.1, -0.43, 0.00, 0.00, -250, 21
ATT, 68800, 0.00, 3.75, 0.00, -7.06, 249.84, 249.84, 0.01, 0.03
RCIN, 68800, 1469, 1294, 1137, 1927, 2031, 1028, 1500, 1499, 0, 0, 0, 0, 0, 0
CTUN, 68860, 0, 0, 0, -0.09816132, -0.09, -0.46, 0.00, 0.00, -250, 20
ATT, 68901, 0.00, 3.76, 0.00, -7.05, 249.81, 249.81, 0.01, 0.03
RCIN, 68902, 1470, 1292, 1135, 1925, 2029, 1028, 1499, 1500, 0, 0, 0, 0, 0, 0
GPS, 3, 394138200, 1893, 7, 3.64, 41.3134648, -105.5816633, -0.09, 2212.95, 0.02, 0.00, -0.02, 68941
CTUN, 68961, 0, 0, 0, -0.09772888, -0.09, -0.40, 0.00, 0.00, -250, 20
ATT, 69000, 0.00, 3.76, 0.00, -7.06, 249.79, 249.79, 0.01, 0.03
RCIN, 69001, 1469, 1291, 1135, 1925, 2030, 1027, 1499, 1500, 0, 0, 0, 0, 0, 0
CTUN, 69061, 0, 0, 0, -0.09452423, -0.09, -0.50, 0.00, 0.00, -250, 20
ATT, 69102, 0.00, 3.76, 0.00, -7.05, 249.76, 249.76, 0.01, 0.04
RCIN, 69102, 1469, 1291, 1135, 1925, 2030, 1026, 1500, 1499, 0, 0, 0, 0, 0, 0
GPS, 3, 394138400, 1893, 7, 3.64, 41.3134647, -105.581663, -0.09, 2212.98, 0.01, 0.00, -0.02, 69141
CTUN, 69162, 0, 0, 0, -0.09740875, -0.09, -0.46, 0.00, 0.00, -250, 20
ATT, 69201, 0.00, 3.77, 0.00, -7.06, 249.72, 249.72, 0.01, 0.03
RCIN, 69201, 1469, 1294, 1138, 1927, 2031, 1027, 1499, 1499, 0, 0, 0, 0, 0, 0
CTUN, 69261, 0, 0, 0, -0.09817078, -0.09, -0.34, 0.00, 0.00, -250, 19
ATT, 69303, 0.00, 3.75, 0.00, -7.07, 249.70, 249.70, 0.01, 0.03
RCIN, 69303, 1470, 1292, 1135, 1925, 2029, 1028, 1499, 1500, 0, 0, 0, 0, 0, 0
GPS, 3, 394138600, 1893, 7, 3.64, 41.3134647, -105.5816628, -0.09, 2213.01, 0.02, 0.00, -0.02, 69342
CTUN, 69362, 0, 0, 0, -0.0921872, -0.09, -0.40, 0.00, 0.00, -250, 19
ATT, 69401, 0.00, 3.77, 0.00, -7.07, 249.66, 249.66, 0.01, 0.03
RCIN, 69401, 1469, 1294, 1137, 1927, 2032, 1027, 1500, 1499, 0, 0, 0, 0, 0, 0
CTUN, 69461, 0, 0, 0, -0.09020569, -0.09, -0.45, 0.00, 0.00, -250, 19
ATT, 69503, 0.00, 3.76, 0.00, -7.08, 249.63, 249.63, 0.01, 0.03
RCIN, 69504, 1469, 1292, 1136, 1924, 2029, 1027, 1500, 1499, 0, 0, 0, 0, 0, 0
GPS, 3, 394138800, 1893, 7, 3.64, 41.3134647, -105.5816625, -0.09, 2213.04, 0.01, 0.00, -0.02, 69542
CTUN, 69562, 0, 0, 0, -0.0911673, -0.09, -0.41, 0.00, 0.00, -250, 19
ATT, 69602, 0.00, 3.75, 0.00, -7.09, 249.61, 249.61, 0.01, 0.03
RCIN, 69603, 1473, 1293, 1136, 1927, 2031, 1028, 1499, 1500, 0, 0, 0, 0, 0, 0
CTUN, 69662, 0, 0, 0, -0.08902771, -0.08, -0.35, 0.00, 0.00, -250, 19
ATT, 69703, 0.00, 3.76, 0.00, -7.09, 249.56, 249.56, 0.01, 0.03
RCIN, 69704, 1469, 1291, 1138, 1918, 2031, 1028, 1499, 1500, 0, 0, 0, 0, 0, 0
DU32, 7, 936921
CURR, 69733, 0, 66429, 1279, 1793, 4712, 322.6656
GPS, 3, 394139000, 1893, 7, 3.64, 41.3134647, -105.5816624, -0.08, 2213.06, 0.01, 0.00, -0.02, 69742
CTUN, 69763, 0, 0, 0, -0.08314789, -0.08, -0.40, 0.00, 0.00, -250, 20
ATT, 69802, 0.00, 3.74, 0.00, -7.11, 249.53, 249.53, 0.01, 0.03
RCIN, 69803, 1473, 1299, 1137, 1918, 2031, 1027, 1500, 1499, 0, 0, 0, 0, 0, 0
CTUN, 69862, 0, 0, 0, -0.08109863, -0.08, -0.35, 0.00, 0.00, -250, 19
ATT, 69904, 0.00, 3.75, 0.00, -7.10, 249.51, 249.51, 0.01, 0.03
RCIN, 69904, 1469, 1293, 1135, 1927, 2031, 1027, 1500, 1499, 0, 0, 0, 0, 0, 0
GPS, 3, 394139200, 1893, 7, 3.64, 41.3134646, -105.5816622, -0.07, 2213.08, 0.01, 0.00, -0.02, 69943
CTUN, 69963, 0, 0, 0, -0.075932, -0.07, -0.38, 0.00, 0.00, -250, 19
ATT, 70002, 0.00, 3.74, 0.00, -7.12, 249.47, 249.47, 0.01, 0.03
RCIN, 70003, 1469, 1293, 1138, 1927, 2029, 1028, 1499, 1500, 0, 0, 0, 0, 0, 0
CTUN, 70064, 0, 0, 0, -0.0729657, -0.07, -0.51, 0.00, 0.00, -250, 20
ATT, 70104, 0.00, 3.74, 0.00, -7.11, 249.45, 249.45, 0.01, 0.03
RCIN, 70104, 1470, 1292, 1136, 1925, 2029, 1028, 1499, 1500, 0, 0, 0, 0, 0, 0
GPS, 3, 394139400, 1893, 7, 3.64, 41.3134646, -105.581662, -0.07, 2213.10, 0.02, 0.00, -0.01, 70143
CTUN, 70164, 0, 0, 0, -0.07817108, -0.07, -0.49, 0.00, 0.00, -250, 19
ATT, 70203, 0.00, 3.74, 0.00, -7.11, 249.42, 249.42, 0.02, 0.03
RCIN, 70203, 1469, 1293, 1135, 1925, 2030, 1027, 1500, 1499, 0, 0, 0, 0, 0, 0
CTUN, 70265, 0, 0, 0, -0.08214508, -0.08, -0.48, 0.00, 0.00, -250, 19
ATT, 70305, 0.00, 3.74, 0.00, -7.12, 249.39, 249.39, 0.02, 0.03
RCIN, 70306, 1469, 1292, 1135, 1925, 2029, 1027, 1500, 1499, 0, 0, 0, 0, 0, 0
GPS, 3, 394139600, 1893, 7, 3.64, 41.3134646, -105.5816618, -0.08, 2213.12, 0.02, 0.00, -0.01, 70344
CTUN, 70364, 0, 0, 0, -0.08520081, -0.08, -0.54, 0.00, 0.00, -250, 19
ATT, 70403, 0.00, 3.74, 0.00, -7.11, 249.37, 249.37, 0.00, 0.03
RCIN, 70403, 1469, 1292, 1135, 1925, 2029, 1028, 1499, 1499, 0, 0, 0, 0, 0, 0
CTUN, 70465, 0, 0, 0, -0.09213898, -0.09, -0.45, 0.00, 0.00, -250, 19
ATT, 70505, 0.00, 3.74, 0.00, -7.12, 249.33, 249.33, 0.00, 0.03
RCIN, 70505, 1469, 1292, 1136, 1925, 2031, 1031, 1499, 1499, 0, 0, 0, 0, 0, 0
GPS, 3, 394139800, 1893, 7, 3.64, 41.3134645, -105.5816616, -0.09, 2213.13, 0.01, 0.00, -0.01, 70544
CTUN, 70564, 0, 0, 0, -0.09327331, -0.09, -0.38, 0.00, 0.00, -250, 19
ATT, 70604, 0.00, 3.74, 0.00, -7.13, 249.30, 249.30, 0.02, 0.02
RCIN, 70604, 1469, 1292, 1135, 1925, 2029, 1027, 1499, 1500, 0, 0, 0, 0, 0, 0
CTUN, 70665, 0, 0, 0, -0.08962586, -0.08, -0.49, 0.00, 0.00, -250, 19
ATT, 70706, 0.00, 3.73, 0.00, -7.13, 249.28, 249.28, 0.02, 0.03
RCIN, 70706, 1469, 1291, 1135, 1931, 2031, 1027, 1500, 1499, 0, 0, 0, 0, 0, 0
DU32, 7, 936921
CURR, 70735, 0, 66429, 1274, 1785, 4732, 327.649
GPS, 3, 394140000, 1893, 7, 3.64, 41.3134645, -105.5816614, -0.09, 2213.16, 0.01, 0.00, -0.02, 70744
CTUN, 70765, 0, 0, 0, -0.09329834, -0.09, -0.39, 0.00, 0.00, -250, 19
ATT, 70804, 0.00, 3.72, 0.00, -7.14, 249.24, 249.24, 0.01, 0.03
RCIN, 70804, 1469, 1294, 1136, 1927, 2031, 1027, 1500, 1499, 0, 0, 0, 0, 0, 0
CTUN, 70866, 0, 0, 0, -0.09034546, -0.09, -0.40, 0.00, 0.00, -250, 19
ATT, 70905, 0.00, 3.71, 0.00, -7.13, 249.22, 249.22, 0.01, 0.03
RCIN, 70906, 1469, 1292, 1138, 1926, 2030, 1027, 1499, 1499, 0, 0, 0, 0, 0, 0
GPS, 3, 394140200, 1893, 7, 3.64, 41.3134645, -105.5816611, -0.08, 2213.19, 0.04, 0.00, -0.03, 70945
CTUN, 70965, 0, 0, 0, -0.08878265, -0.08, -0.51, 0.00, 0.00, -250, 19
ATT, 71004, 0.00, 3.70, 0.00, -7.14, 249.19, 249.19, 0.03, 0.03
RCIN, 71004, 1470, 1450, 1137, 1765, 2029, 1028, 1499, 1500, 0, 0, 0, 0, 0, 0
CTUN, 71066, 0, 0, 0, -0.09360351, -0.09, -0.32, 0.00, 0.00, -250, 18
ATT, 71106, 0.00, 3.70, 0.00, -7.13, 249.16, 249.16, 0.03, 0.02
RCIN, 71106, 1469, 1509, 1137, 1706, 2031, 1028, 1499, 1500, 0, 0, 0, 0, 0, 0
GPS, 3, 394140400, 1893, 7, 3.64, 41.3134645, -105.581661, -0.08, 2213.20, 0.03, 0.00, -0.03, 71145
CTUN, 71165, 0, 0, 0, -0.08684509, -0.08, -0.40, 0.00, 0.00, -250, 19
ATT, 71207, 0.00, 3.69, 0.00, -7.12, 249.13, 249.13, 0.01, 0.02
RCIN, 71207, 1469, 1694, 1135, 1524, 2029, 1028, 1500, 1499, 0, 0, 0, 0, 0, 0
CTUN, 71267, 0, 0, 0, -0.08562927, -0.08, -0.49, 0.00, 0.00, -250, 18
ATT, 71306, 0.00, 3.69, 0.00, -7.14, 249.10, 249.10, 0.01, 0.02
RCIN, 71306, 1469, 1695, 1137, 1521, 2030, 1026, 1500, 1499, 0, 0, 0, 0, 0, 0
GPS, 3, 394140600, 1893, 7, 3.64, 41.3134645, -105.5816608, -0.08, 2213.22, 0.02, 0.00, -0.03, 71345
CTUN, 71366, 0, 0, 0, -0.08980377, -0.08, -0.36, 0.00, 0.00, -250, 18
ATT, 71407, 0.00, 3.68, 0.00, -7.15, 249.08, 249.08, 0.01, 0.02
RCIN, 71407, 1470, 1693, 1135, 1520, 2029, 1028, 1499, 1499, 0, 0, 0, 0, 0, 0
CTUN, 71467, 0, 0, 0, -0.08611908, -0.08, -0.44, 0.00, 0.00, -250, 18
ATT, 71507, 0.00, 3.69, 0.00, -7.15, 249.05, 249.05, 0.01, 0.02
RCIN, 71508, 1469, 1693, 1136, 1520, 2030, 1028, 1499, 1500, 0, 0, 0, 0, 0, 0
GPS, 3, 394140800, 1893, 7, 3.64, 41.3134644, -105.5816605, -0.08, 2213.26, 0.02, 0.00, -0.03, 71546
CTUN, 71566, 0, 0, 0, -0.08752014, -0.08, -0.37, 0.00, 0.00, -250, 18
ATT, 71607, 0.00, 3.68, 0.00, -7.16, 249.02, 249.02, 0.01, 0.02
RCIN, 71607, 1469, 1693, 1135, 1520, 2030, 1026, 1499, 1500, 0, 0, 0, 0, 0, 0
CTUN, 71667, 0, 0, 0, -0.08506958, -0.08, -0.46, 0.00, 0.00, -250, 18
ATT, 71708, 0.00, 3.69, 0.00, -7.15, 249.00, 249.00, 0.01, 0.01
RCIN, 71708, 1469, 1693, 1137, 1522, 2030, 1027, 1500, 1499, 0, 0, 0, 0, 0, 0
DU32, 7, 936921
CURR, 71736, 0, 66429, 1274, 1783, 4732, 332.6233
GPS, 3, 394141000, 1893, 7, 3.64, 41.3134644, -105.5816603, -0.08, 2213.28, 0.01, 0.00, -0.02, 71746
CTUN, 71767, 0, 0, 0, -0.0885556, -0.08, -0.44, 0.00, 0.00, -250, 17
ATT, 71807, 0.00, 3.69, 0.00, -7.17, 248.96, 248.96, 0.01, 0.02
RCIN, 71808, 1469, 1693, 1136, 1521, 2029, 1027, 1500, 1499, 0, 0, 0, 0, 0, 0
CTUN, 71867, 0, 0, 0, -0.09140778, -0.09, -0.38, 0.00, 0.00, -250, 17
ATT, 71907, 0.00, 3.68, 0.00, -7.17, 248.94, 248.94, 0.01, 0.02
RCIN, 71908, 1470, 1694, 1138, 1522, 2031, 1028, 1499, 1499, 0, 0, 0, 0, 0, 0
GPS, 3, 394141200, 1893, 7, 3.64, 41.3134644, -105.58166, -0.09, 2213.32, 0.04, 0.00, -0.03, 71946
CTUN, 71969, 0, 0, 0, -0.08990997, -0.08, -0.36, 0.00, 0.00, -250, 17
ATT, 72008, 0.00, 3.67, 0.00, -7.17, 248.91, 248.91, 0.03, 0.02
RCIN, 72008, 1469, 1692, 1135, 1520, 2030, 1027, 1499, 1500, 0, 0, 0, 0, 0, 0
CTUN, 72068, 0, 0, 0, -0.08730377, -0.08, -0.39, 0.00, 0.00, -250, 17
ATT, 72108, 0.00, 3.67, 0.00, -7.18, 248.88, 248.88, 0.03, 0.02
RCIN, 72108, 1469, 1778, 1139, 1437, 2031, 1028, 1499, 1500, 0, 0, 0, 0, 0, 0
GPS, 3, 394141400, 1893, 7, 3.64, 41.3134644, -105.5816597, -0.08, 2213.35, 0.03, 0.00, -0.03, 72147
CTUN, 72169, 0, 0, 0, -0.08645569, -0.08, -0.33, 0.00, 0.00, -250, 17
ATT, 72208, 0.00, 3.66, 0.00, -7.17, 248.87, 248.87, 0.01, 0.01
RCIN, 72209, 1469, 1930, 1137, 1285, 2031, 1026, 1500, 1499, 0, 0, 0, 0, 0, 0
CTUN, 72269, 0, 0, 0, -0.08233673, -0.08, -0.44, 0.00, 0.00, -250, 17
ATT, 72308, 0.00, 3.64, 0.00, -7.19, 248.83, 248.83, 0.01, 0.02
RCIN, 72309, 1469, 2031, 1138, 1157, 2031, 1026, 1500, 1499, 0, 0, 0, 0, 0, 0
GPS, 3, 394141600, 1893, 7, 3.64, 41.3134644, -105.5816595, -0.08, 2213.38, 0.02, 0.00, -0.02, 72347
CTUN, 72370, 0, 0, 0, -0.08493988, -0.08, -0.42, 0.00, 0.00, -250, 17
ATT, 72409, 0.00, 3.66, 0.00, -7.19, 248.81, 248.81, 0.01, 0.02
RCIN, 72410, 1470, 2031, 1137, 1158, 2031, 1028, 1499, 1499, 0, 0, 0, 0, 0, 0
CTUN, 72469, 0, 0, 0, -0.0862857, -0.08, -0.39, 0.00, 0.00, -250, 17
ATT, 72509, 0.00, 3.67, 0.00, -7.19, 248.79, 248.79, 0.01, 0.02
RCIN, 72509, 1469, 2031, 1138, 1157, 2030, 1027, 1499, 1500, 0, 0, 0, 0, 0, 0
GPS, 3, 394141800, 1893, 7, 3.64, 41.3134643, -105.5816592, -0.08, 2213.42, 0.02, 0.00, -0.03, 72549
CTUN, 72570, 0, 0, 0, -0.08593323, -0.08, -0.40, 0.00, 0.00, -250, 17
ATT, 72609, 0.00, 3.67, 0.00, -7.20, 248.75, 248.75, 0.02, 0.02
RCIN, 72609, 1473, 2030, 1135, 1155, 2030, 1025, 1500, 1499, 0, 0, 0, 0, 0, 0
CTUN, 72669, 0, 0, 0, -0.08583496, -0.08, -0.47, 0.00, 0.00, -250, 17
ATT, 72709, 0.00, 3.64, 0.00, -7.21, 248.74, 248.74, 0.02, 0.01
RCIN, 72709, 1469, 2029, 1136, 1156, 2029, 1027, 1500, 1499, 0, 0, 0, 0, 0, 0
DU32, 7, 936921
CURR, 72740, 0, 66429, 1278, 1794, 4712, 337.6043
GPS, 3, 394142000, 1893, 7, 3.64, 41.3134644, -105.581659, -0.08, 2213.44, 0.01, 0.00, -0.02, 72750
CTUN, 72770, 0, 0, 0, -0.09026306, -0.09, -0.35, 0.00, 0.00, -250, 17
ATT, 72809, 0.00, 3.65, 0.00, -7.21, 248.71, 248.71, 0.00, 0.02
RCIN, 72810, 1469, 2029, 1135, 1156, 2029, 1027, 1499, 1499, 0, 0, 0, 0, 0, 0
CTUN, 72870, 0, 0, 0, -0.08773194, -0.08, -0.51, 0.00, 0.00, -250, 16
ATT, 72909, 0.00, 3.65, 0.00, -7.22, 248.68, 248.68, 0.00, 0.02
RCIN, 72909, 1470, 2029, 1136, 1155, 2029, 1028, 1499, 1500, 0, 0, 0, 0, 0, 0
GPS, 3, 394142200, 1893, 7, 3.64, 41.3134644, -105.5816588, -0.09, 2213.46, 0.02, 0.00, -0.02, 72950
CTUN, 72971, 0, 0, 0, -0.0949823, -0.09, -0.32, 0.00, 0.00, -250, 16
ATT, 73011, 0.00, 3.64, 0.00, -7.22, 248.67, 248.67, 0.01, 0.01
RCIN, 73011, 1469, 2029, 1135, 1156, 2029, 1027, 1499, 1500, 0, 0, 0, 0, 0, 0
CTUN, 73070, 0, 0, 0, -0.09128357, -0.09, -0.41, 0.00, 0.00, -250, 15
ATT, 73110, 0.00, 3.64, 0.00, -7.22, 248.64, 248.64, 0.01, 0.01
RCIN, 73110, 1469, 2029, 1136, 1156, 2029, 1027, 1500, 1499, 0, 0, 0, 0, 0, 0
GPS, 3, 394142400, 1893, 7, 3.64, 41.3134644, -105.5816586, -0.09, 2213.49, 0.02, 0.00, -0.03, 73151
CTUN, 73171, 0, 0, 0, -0.09375946, -0.09, -0.41, 0.00, 0.00, -250, 15
ATT, 73210, 0.00, 3.64, 0.00, -7.23, 248.62, 248.62, 0.01, 0.02
RCIN, 73210, 1469, 2029, 1136, 1157, 2030, 1028, 1499, 1499, 0, 0, 0, 0, 0, 0
CTUN, 73270, 0, 0, 0, -0.09624695, -0.09, -0.44, 0.00, 0.00, -250, 15
ATT, 73312, 0.00, 3.66, 0.00, -7.22, 248.59, 248.59, 0.01, 0.01
RCIN, 73312, 1470, 2028, 1135, 1156, 2029, 1028, 1499, 1500, 0, 0, 0, 0, 0, 0
GPS, 3, 394142600, 1893, 7, 3.64, 41.3134644, -105.5816583, -0.09, 2213.52, 0.02, 0.00, -0.02, 73351
CTUN, 73372, 0, 0, 0, -0.1002603, -0.1, -0.42, 0.00, 0.00, -250, 15
ATT, 73411, 0.00, 3.64, 0.00, -7.24, 248.56, 248.56, 0.01, 0.02
RCIN, 73411, 1469, 2031, 1136, 1157, 2030, 1028, 1499, 1500, 0, 0, 0, 0, 0, 0
CTUN, 73471, 0, 0, 0, -0.1018506, -0.1, -0.41, 0.00, 0.00, -250, 16
ATT, 73513, 0.00, 3.64, 0.00, -7.24, 248.55, 248.55, 0.01, 0.01
RCIN, 73513, 1469, 2032, 1137, 1158, 2031, 1027, 1500, 1499, 0, 0, 0, 0, 0, 0
GPS, 3, 394142800, 1893, 7, 3.64, 41.3134644, -105.5816582, -0.10, 2213.54, 0.01, 0.00, -0.02, 73551
CTUN, 73572, 0, 0, 0, -0.1031467, -0.1, -0.52, 0.00, 0.00, -250, 16
ATT, 73611, 0.00, 3.64, 0.00, -7.25, 248.52, 248.52, 0.01, 0.01
RCIN, 73611, 1467, 2032, 1137, 1158, 2031, 1027, 1500, 1499, 0, 0, 0, 0, 0, 0
CTUN, 73671, 0, 0, 0, -0.1111652, -0.11, -0.41, 0.00, 0.00, -250, 15
ATT, 73713, 0.00, 3.63, 0.00, -7.26, 248.49, 248.49, 0.01, 0.01
RCIN, 73713, 1469, 2031, 1136, 1157, 2029, 1028, 1499, 1499, 0, 0, 0, 0, 0, 0
DU32, 7, 936921
CURR, 73742, 0, 66429, 1279, 1792, 4732, 342.6031
GPS, 3, 394143000, 1893, 7, 3.64, 41.3134644, -105.5816582, -0.11, 2213.55, 0.02, 0.00, -0.02, 73752
CTUN, 73772, 0, 0, 0, -0.1128247, -0.11, -0.41, 0.00, 0.00, -250, 15
ATT, 73812, 0.00, 3.62, 0.00, -7.25, 248.48, 248.48, 0.02, 0.01
RCIN, 73812, 1470, 2029, 1137, 1156, 2031, 1028, 1499, 1500, 0, 0, 0, 0, 0, 0
CTUN, 73872, 0, 0, 0, -0.1135422, -0.11, -0.50, 0.00, 0.00, -250, 16
ATT, 73913, 0.00, 3.63, 0.00, -7.27, 248.45, 248.45, 0.02, 0.01
RCIN, 73913, 1469, 2029, 1136, 1155, 2029, 1028, 1499, 1500, 0, 0, 0, 0, 0, 0
GPS, 3, 394143200, 1893, 7, 3.64, 41.3134645, -105.5816581, -0.11, 2213.56, 0.02, 0.00, -0.02, 73952
CTUN, 73973, 0, 0, 0, -0.1188037, -0.11, -0.44, 0.00, 0.00, -250, 16
ATT, 74012, 0.00, 3.62, 0.00, -7.26, 248.43, 248.43, 0.01, 0.01
RCIN, 74012, 1469, 2031, 1137, 1156, 2031, 1027, 1500, 1499, 0, 0, 0, 0, 0, 0
CTUN, 74074, 0, 0, 0, -0.1208441, -0.12, -0.44, 0.00, 0.00, -250, 16
ATT, 74115, 0.00, 3.63, 0.00, -7.26, 248.41, 248.41, 0.01, 0.01
RCIN, 74115, 1469, 2030, 1135, 1155, 2030, 1027, 1500, 1499, 0, 0, 0, 0, 0, 0
GPS, 3, 394143400, 1893, 7, 3.64, 41.3134645, -105.5816581, -0.12, 2213.57, 0.02, 0.00, -0.02, 74152
CTUN, 74173, 0, 0, 0, -0.1228476, -0.12, -0.44, 0.00, 0.00, -250, 15
ATT, 74212, 0.00, 3.62, 0.00, -7.27, 248.38, 248.38, 0.02, 0.01
RCIN, 74213, 1469, 2030, 1135, 1155, 2030, 1027, 1499, 1499, 0, 0, 0, 0, 0, 0
EV, 10
MODE, Stabilize, 504
GPS, 3, 394176399, 1893, 8, 1.90, 41.3134706, -105.5816957, 0.00, 2208.81, 0.01, 0.00, -0.01, 107242
CTUN, 107282, 0, 0, 0, 0, 0, 0.02, 0.00, 0.00, -250, 1
ATT, 107322, 0.00, -2.07, 0.00, -6.11, 251.45, 251.45, 0.00, 0.00
RCIN, 107322, 1469, 1293, 1138, 1926, 1555, 1027, 1500, 1499, 0, 0, 0, 0, 0, 0
CTUN, 107384, 0, 0, 0, 0, 0, -0.01, 0.00, 0.00, -250, 1
GPS, 3, 394176600, 1893, 8, 1.90, 41.3134707, -105.5816959, 0.00, 2208.78, 0.02, 0.00, -0.01, 107403
ATT, 107423, 0.00, -2.07, 0.00, -6.12, 251.43, 251.43, 0.02, 0.00
RCIN, 107423, 1469, 1294, 1134, 1926, 1553, 1027, 1500, 1499, 0, 0, 0, 0, 0, 0
CTUN, 107483, 0, 0, 0, 0, 0, 0.02, 0.00, 0.00, -250, 1
ATT, 107524, 0.00, -2.07, 0.00, -6.12, 251.41, 251.41, 0.02, 0.00
RCIN, 107524, 1469, 1294, 1137, 1926, 1555, 1027, 1500, 1499, 0, 0, 0, 0, 0, 0
CTUN, 107585, 0, 0, 0, 0, 0, -0.05, 0.00, 0.00, -250, 1
GPS, 3, 394176800, 1893, 8, 1.90, 41.3134707, -105.5816962, 0.00, 2208.75, 0.00, 0.00, -0.02, 107603
ATT, 107623, 0.00, -2.07, 0.00, -6.12, 251.39, 251.39, 0.00, 0.00
RCIN, 107624, 1469, 1294, 1135, 1925, 1553, 1027, 1500, 1499, 0, 0, 0, 0, 0, 0
CTUN, 107683, 0, 0, 0, 0, 0, -0.07, 0.00, 0.00, -250, 1
ATT, 107724, 0.00, -2.07, 0.00, -6.13, 251.37, 251.37, 0.00, 0.00
RCIN, 107725, 1469, 1294, 1137, 1927, 1555, 1027, 1500, 1499, 0, 0, 0, 0, 0, 0
CTUN, 107785, 0, 0, 0, 0, 0, 0.01, 0.00, 0.00, -250, 2
GPS, 3, 394177000, 1893, 8, 1.90, 41.3134708, -105.5816965, 0.00, 2208.71, 0.01, 0.00, 0, 107804
ATT, 107823, 0.00, -2.06, 0.00, -6.14, 251.35, 251.35, 0.00, 0.01
RCIN, 107824, 1469, 1376, 1135, 1837, 1552, 1028, 1499, 1499, 0, 0, 0, 0, 0, 0
DU32, 7, 674777
CURR, 107852, 0, 66429, 1277, 1792, 4732, 512.265
CTUN, 107883, 0, 0, 0, 0, 0, 0.05, 0.00, 0.00, -250, 2
ATT, 107925, 0.00, -2.05, 0.00, -6.16, 251.33, 251.33, 0.00, 0.00
RCIN, 107925, 1469, 1482, 1137, 1735, 1553, 1028, 1499, 1499, 0, 0, 0, 0, 0, 0
CTUN, 107986, 0, 0, 0, 0, 0.01, -0.07, 0.00, 0.00, -250, 2
GPS, 3, 394177200, 1893, 8, 1.90, 41.3134708, -105.5816968, 0.00, 2208.68, 0.01, 0.00, -0.01, 108004
ATT, 108024, 0.00, -2.05, 0.00, -6.16, 251.31, 251.31, 0.00, 0.00
RCIN, 108024, 1470, 1704, 1136, 1508, 1552, 1028, 1499, 1500, 0, 0, 0, 0, 0, 0
CTUN, 108084, 0, 0, 0, 0, 0, -0.06, 0.00, 0.00, -250, 2
ATT, 108125, 0.00, -2.04, 0.00, -6.17, 251.29, 251.29, 0.00, 0.00
RCIN, 108126, 1469, 1693, 1137, 1521, 1554, 1028, 1499, 1500, 0, 0, 0, 0, 0, 0
CTUN, 108186, 0, 0, 0, 0, 0, 0.00, 0.00, 0.00, -250, 2
GPS, 3, 394177400, 1893, 8, 1.90, 41.3134708, -105.5816971, 0.00, 2208.65, 0.01, 0.00, -0.01, 108205
ATT, 108224, 0.00, -2.03, 0.00, -6.19, 251.26, 251.26, 0.01, 0.00
RCIN, 108224, 1468, 1692, 1136, 1519, 1552, 1028, 1499, 1500, 0, 0, 0, 0, 0, 0
CTUN, 108284, 0, 0, 0, 0, 0, -0.03, 0.00, 0.00, -250, 2
ATT, 108325, 0.00, -2.01, 0.00, -6.19, 251.24, 251.24, 0.01, 0.00
RCIN, 108326, 1469, 1693, 1137, 1520, 1553, 1027, 1500, 1499, 0, 0, 0, 0, 0, 0
CTUN, 108386, 0, 0, 0, 0, 0, -0.17, 0.00, 0.00, -250, 2
GPS, 3, 394177600, 1893, 8, 1.90, 41.3134708, -105.5816974, 0.00, 2208.62, 0.01, 0.00, -0.01, 108405
ATT, 108425, 0.00, -2.00, 0.00, -6.20, 251.22, 251.22, 0.00, 0.00
RCIN, 108425, 1469, 1694, 1136, 1522, 1555, 1027, 1500, 1499, 0, 0, 0, 0, 0, 0
CTUN, 108486, 0, 0, 0, 0, 0, -0.08, 0.00, 0.00, -250, 2
ATT, 108526, 0.00, -1.98, 0.00, -6.20, 251.20, 251.20, 0.00, 0.00
RCIN, 108526, 1469, 1694, 1138, 1522, 1554, 1027, 1500, 1499, 0, 0, 0, 0, 0, 0
CTUN, 108587, 0, 0, 0, 0, 0, 0.03, 0.00, 0.00, -250, 2
GPS, 3, 394177800, 1893, 8, 1.90, 41.3134708, -105.5816976, 0.00, 2208.59, 0.01, 0.00, -0.01, 108605
ATT, 108625, 0.00, -1.98, 0.00, -6.21, 251.17, 251.17, 0.00, 0.01
RCIN, 108625, 1469, 1694, 1138, 1522, 1554, 1027, 1500, 1499, 0, 0, 0, 0, 0, 0
CTUN, 108687, 0, 0, 0, 0, 0, -0.12, 0.00, 0.00, -250, 2
ATT, 108726, 0.00, -1.98, 0.00, -6.22, 251.15, 251.15, 0.00, 0.00
RCIN, 108726, 1469, 1695, 1137, 1522, 1555, 1027, 1500, 1499, 0, 0, 0, 0, 0, 0
CTUN, 108787, 0, 0, 0, 0, 0, 0.02, 0.00, 0.00, -250, 1
GPS, 3, 394178000, 1893, 8, 1.90, 41.3134708, -105.5816979, 0.00, 2208.56, 0.01, 0.00, 0, 108825
ATT, 108826, 0.00, -1.98, 0.00, -6.23, 251.14, 251.14, 0.00, 0.00
RCIN, 108826, 1469, 1695, 1137, 1523, 1554, 1027, 1500, 1499, 0, 0, 0, 0, 0, 0
DU32, 7, 674777
CURR, 108854, 0, 66429, 1277, 1795, 4732, 517.2573
CTUN, 108887, 0, 0, 0, 0, 0, -0.02, 0.00, 0.00, -250, 1
ATT, 108926, 0.00, -1.98, 0.00, -6.24, 251.11, 251.11, 0.00, 0.01
RCIN, 108927, 1468, 1693, 1138, 1522, 1554, 1027, 1499, 1499, 0, 0, 0, 0, 0, 0
CTUN, 108987, 0, 0, 0, 0, 0, -0.10, 0.00, 0.00, -250, 0
GPS, 3, 394178200, 1893, 8, 1.90, 41.3134708, -105.5816981, 0.00, 2208.53, 0.02, 0.00, -0.01, 109006
ATT, 109026, 0.00, -1.97, 0.00, -6.24, 251.10, 251.10, 0.01, 0.00
RCIN, 109026, 1470, 1694, 1137, 1523, 1554, 1027, 1499, 1499, 0, 0, 0, 0, 0, 0
CTUN, 109088, 0, 0, 0, 0, 0, -0.08, 0.00, 0.00, -250, 0
ATT, 109127, 0.00, -1.98, 0.00, -6.24, 251.08, 251.08, 0.01, 0.00
RCIN, 109127, 1469, 1694, 1137, 1523, 1554, 1027, 1499, 1500, 0, 0, 0, 0, 0, 0
CTUN, 109188, 0, 0, 0, 0, 0, 0.10, 0.00, 0.00, -250, 1
GPS, 3, 394178400, 1893, 8, 1.90, 41.3134709, -105.5816985, 0.00, 2208.50, 0.01, 0.00, -0.01, 109206
ATT, 109226, 0.00, -1.98, 0.00, -6.25, 251.06, 251.06, 0.00, 0.00
RCIN, 109226, 1470, 1695, 1137, 1522, 1554, 1027, 1499, 1500, 0, 0, 0, 0, 0, 0
CTUN, 109288, 0, 0, 0, 0, 0, 0.03, 0.00, 0.00, -250, 1
ATT, 109327, 0.00, -1.98, 0.00, -6.26, 251.04, 251.04, 0.00, 0.00
RCIN, 109327, 1470, 1695, 1137, 1520, 1554, 1027, 1499, 1500, 0, 0, 0, 0, 0, 0
CTUN, 109388, 0, 0, 0, 0, 0, -0.06, 0.00, 0.00, -250, 1
GPS, 3, 394178600, 1893, 8, 1.90, 41.3134709, -105.5816988, 0.00, 2208.46, 0.01, 0.00, -0.01, 109407
ATT, 109426, 0.00, -1.97, 0.00, -6.26, 251.03, 251.03, 0.00, 0.00
RCIN, 109427, 1469, 1694, 1136, 1522, 1554, 1028, 1499, 1500, 0, 0, 0, 0, 0, 0
CTUN, 109488, 0, 0, 0, 0, 0, 0.07, 0.00, 0.00, -250, 1
ATT, 109528, 0.00, -1.98, 0.00, -6.28, 251.00, 251.00, 0.00, 0.00
RCIN, 109528, 1470, 1694, 1136, 1522, 1554, 1028, 1499, 1500, 0, 0, 0, 0, 0, 0
CTUN, 109588, 0, 0, 0, 0, 0, -0.10, 0.00, 0.00, -250, 1
GPS, 3, 394178800, 1893, 8, 1.90, 41.3134709, -105.581699, 0.00, 2208.43, 0.02, 0.00, -0.01, 109607
ATT, 109627, 0.00, -1.96, 0.00, -6.28, 250.99, 250.99, 0.01, 0.00
RCIN, 109627, 1469, 1693, 1138, 1522, 1554, 1028, 1499, 1500, 0, 0, 0, 0, 0, 0
CTUN, 109688, 0, 0, 0, 0, 0, 0.00, 0.00, 0.00, -250, 1
ATT, 109729, 0.00, -1.96, 0.00, -6.29, 250.97, 250.97, 0.01, 0.00
RCIN, 109729, 1469, 1694, 1136, 1522, 1554, 1027, 1499, 1500, 0, 0, 0, 0, 0, 0
CTUN, 109789, 0, 0, 0, 0, 0, 0.00, 0.00, 0.00, -250, 1
GPS, 3, 394179000, 1893, 8, 1.90, 41.3134709, -105.5816993, 0.00, 2208.40, 0.01, 0.00, -0.01, 109808
ATT, 109829, 0.00, -1.96, 0.00, -6.29, 250.94, 250.94, 0.00, 0.00
RCIN, 109830, 1470, 1690, 1138, 1526, 1554, 1028, 1499, 1500, 0, 0, 0, 0, 0, 0
DU32, 7, 674777
CURR, 109858, 0, 66429, 1274, 1788, 4712, 522.2391
CTUN, 109889, 0, 0, 0, 0, 0, -0.06, 0.00, 0.00, -250, 1
ATT, 109928, 0.00, -1.96, 0.00, -6.30, 250.93, 250.93, 0.00, 0.00
RCIN, 109929, 1469, 1689, 1139, 1525, 1552, 1028, 1499, 1500, 0, 0, 0, 0, 0, 0
CTUN, 109989, 0, 0, 0, 0, 0, -0.10, 0.00, 0.00, -250, 1
GPS, 3, 394179200, 1893, 8, 1.90, 41.3134709, -105.5816996, 0.00, 2208.37, 0.01, 0.00, -0.01, 110008
ATT, 110029, 0.00, -1.96, 0.00, -6.31, 250.91, 250.91, 0.01, 0.00
RCIN, 110030, 1469, 1677, 1154, 1538, 1554, 1027, 1499, 1500, 0, 0, 0, 0, 0, 0
CTUN, 110089, 0, 0, 0, 0, 0, -0.05, 0.00, 0.00, -250, 1
ATT, 110129, 0.00, -1.96, 0.00, -6.31, 250.89, 250.89, 0.01, 0.00
RCIN, 110129, 1469, 1689, 1151, 1525, 1552, 1026, 1499, 1500, 0, 0, 0, 0, 0, 0
CTUN, 110189, 0, 0, 0, 0, 0, -0.03, 0.00, 0.00, -250, 1
GPS, 3, 394179400, 1893, 8, 1.90, 41.3134709, -105.5816998, 0.00, 2208.34, 0.02, 0.00, -0.01, 110210
ATT, 110230, 0.00, -1.96, 0.00, -6.31, 250.87, 250.87, 0.00, 0.00
RCIN, 110230, 1469, 1691, 1153, 1525, 1555, 1027, 1500, 1499, 0, 0, 0, 0, 0, 0
CTUN, 110290, 0, 0, 0, 0, 0, -0.08, 0.00, 0.00, -250, 1
EV, 15
ATT, 110329, 0.00, -1.96, 0.00, -6.32, 250.85, 250.85, 0.00, 0.00
RCIN, 110329, 1469, 1688, 1164, 1524, 1553, 1027, 1500, 1499, 0, 0, 0, 0, 0, 0
CTUN, 110392, 184, 0, 184, 0, 0, -0.12, 0.00, 0.00, -250, 1
GPS, 3, 394179600, 1893, 8, 1.90, 41.313471, -105.5817001, 0.00, 2208.31, 0.02, 0.00, -0.01, 110412
ATT, 110433, 0.00, -1.89, 0.00, -6.28, 250.85, 250.82, 0.01, 0.00
RCIN, 110433, 1469, 1674, 1215, 1541, 1555, 1028, 1500, 1499, 0, 0, 0, 0, 0, 0
CTUN, 110493, 181, 0, 181, 0, -0.01, 0.05, 0.00, 0.00, -250, 2
ATT, 110532, 0.00, -1.80, 0.00, -6.23, 250.85, 250.76, 0.01, 0.06
RCIN, 110532, 1469, 1676, 1212, 1536, 1553, 1027, 1500, 1499, 0, 0, 0, 0, 0, 0
CTUN, 110594, 183, 0, 183, 0, 0, -0.04, 0.00, 0.00, -250, 3
GPS, 3, 394179800, 1893, 8, 1.90, 41.313471, -105.5817003, 0.00, 2208.28, 0.00, 0.00, -0.01, 110612
ATT, 110632, 0.00, -1.72, 0.00, -6.17, 250.85, 250.71, 0.00, 0.04
RCIN, 110632, 1469, 1693, 1214, 1522, 1553, 1028, 1500, 1499, 0, 0, 0, 0, 0, 0
CTUN, 110693, 181, 0, 182, 0, 0, -0.01, 0.00, 0.00, -250, 0
ATT, 110732, 0.00, -1.60, 0.00, -6.10, 250.85, 250.65, 0.00, 0.04
RCIN, 110732, 1467, 1693, 1211, 1520, 1552, 1027, 1500, 1499, 0, 0, 0, 0, 0, 0
CTUN, 110794, 184, 0, 184, 0, 0, 0.25, 0.00, 0.00, -250, -2
GPS, 3, 394180000, 1893, 8, 1.90, 41.313471, -105.5817006, 0.00, 2208.25, 0.00, 0.00, -0.01, 110813
ATT, 110832, 0.00, -1.60, 0.00, -6.07, 250.85, 250.60, 0.00, 0.04
RCIN, 110833, 1469, 1693, 1213, 1521, 1555, 1027, 1500, 1499, 0, 0, 0, 0, 0, 0
DU32, 7, 150521
CURR, 110863, 181, 67478, 1276, 1791, 4712, 527.231
CTUN, 110892, 183, 0, 184, 0, 0, 0.14, 0.00, 0.00, -250, -3
ATT, 110933, 0.00, -1.56, 0.00, -6.03, 250.85, 250.56, 0.00, 0.04
RCIN, 110933, 1469, 1693, 1212, 1520, 1553, 1027, 1500, 1499, 0, 0, 0, 0, 0, 0
CTUN, 110994, 182, 0, 182, 0, 0.01, 0.09, 0.00, 0.00, -250, -1
GPS, 3, 394180200, 1893, 8, 1.90, 41.3134711, -105.5817008, 0.01, 2208.22, 0.01, 0.00, -0.01, 111014
ATT, 111033, 0.00, -1.46, 0.00, -5.94, 250.85, 250.51, 0.01, 0.04
RCIN, 111034, 1469, 1694, 1214, 1522, 1554, 1027, 1500, 1499, 0, 0, 0, 0, 0, 0
CTUN, 111094, 182, 0, 183, 0, 0.01, 0.12, 0.00, 0.00, -250, -2
ATT, 111133, 0.00, -1.54, 0.00, -5.95, 250.85, 250.46, 0.01, 0.03
RCIN, 111133, 1469, 1692, 1213, 1520, 1553, 1027, 1500, 1499, 0, 0, 0, 0, 0, 0
CTUN, 111195, 183, 0, 183, 0, 0.01, -0.01, 0.00, 0.00, -250, -3
GPS, 3, 394180400, 1893, 8, 1.90, 41.3134711, -105.581701, 0.01, 2208.19, 0.02, 0.00, -0.01, 111213
ATT, 111233, 0.00, -1.41, 0.00, -5.84, 250.85, 250.42, 0.01, 0.03
RCIN, 111234, 1469, 1695, 1213, 1521, 1041, 1027, 1499, 1500, 0, 0, 0, 0, 0, 0
CTUN, 111294, 183, 0, 184, 0, 0, 0.14, 0.00, 0.00, -250, -3
ATT, 111333, 0.00, -1.42, 0.00, -5.84, 250.85, 250.38, 0.01, 0.04
RCIN, 111333, 1469, 1692, 1212, 1520, 1039, 1027, 1499, 1499, 0, 0, 0, 0, 0, 0
CMD, 111394, 5, 1, 22, 0, 0, 0, 0, 0, 0, 9.14
MODE, Auto, 504
EV, 28
GPS, 3, 394180600, 1893, 8, 1.90, 41.3134712, -105.5817012, 0.01, 2208.16, 0.02, 0.00, -0.02, 111406
CTUN, 111426, 181, 1, 382, -0.02327614, 0.01, 0.16, 0.00, 0.00, -250, -3
ATT, 111436, -1.37, -1.35, -5.82, -5.79, 250.85, 250.34, 0.00, 0.03
RCIN, 111436, 1469, 1694, 1214, 1520, 1040, 1028, 1499, 1499, 0, 0, 0, 0, 0, 0
NTUN, 111436, -11.41401, -69.42918, 3.883118, -59.95143, -15.27814, -9.589207, -0.5917286, -17.97095, -65.41509, -75.71667
CTUN, 111526, 182, 1, 372, -0.002874136, 0.02, 0.34, 0.00, 0.00, -250, -3
ATT, 111536, -2.74, -0.93, -5.02, -5.57, 250.85, 250.31, 0.00, 0.06
RCIN, 111536, 1469, 1692, 1212, 1520, 1039, 1027, 1499, 1500, 0, 0, 0, 0, 0, 0
NTUN, 111537, -11.38008, -69.40703, 4.12468, -61.10328, -15.47582, -8.419754, 0.4066842, -18.00605, -74.54458, -64.15194
GPS, 3, 394180800, 1893, 8, 1.90, 41.3134712, -105.5817015, 0.03, 2208.13, 0.01, 0.00, -0.01, 111625
CTUN, 111627, 181, 0, 373, 0.03672586, 0.03, 0.49, 0.00, 0.00, -250, -2
ATT, 111666, -2.96, 0.28, -4.93, -4.70, 250.85, 250.10, 0.00, 0.08
RCIN, 111667, 1470, 1693, 1211, 1521, 1039, 1028, 1499, 1500, 0, 0, 0, 0, 0, 0
NTUN, 111667, -11.31421, -69.36403, 4.551618, -62.61784, -15.72575, -7.234367, 0.8653134, -18.60433, -76.66527, -62.37002
CTUN, 111726, 182, 0, 358, 0.09752788, 0.06, 0.43, 0.00, 0.00, -250, -1
ATT, 111765, -3.12, 1.43, -4.78, -3.79, 250.85, 249.94, 0.00, 0.06
RCIN, 111765, 1470, 1693, 1211, 1522, 1042, 1027, 1499, 1500, 0, 0, 0, 0, 0, 0
NTUN, 111766, -11.21308, -69.29802, 4.912696, -63.84177, -15.9734, -5.954338, 1.165635, -19.00513, -78.57271, -58.7639
GPS, 3, 394181000, 1893, 8, 1.90, 41.3134713, -105.5817016, 0.08, 2208.10, 0.04, 0.00, -0.01, 111825
CTUN, 111827, 181, 0, 368, 0.1777279, 0.08, 0.56, 0.00, 0.00, -250, -3
DU32, 7, 150393
CURR, 111865, 376, 70262, 1276, 1789, 4712, 532.2232
ATT, 111866, -3.06, 1.61, -4.57, -3.62, 250.85, 249.87, 0.01, 0.07
RCIN, 111867, 1469, 1693, 1211, 1521, 1039, 1027, 1499, 1500, 0, 0, 0, 0, 0, 0
NTUN, 111867, -11.07968, -69.21095, 5.168871, -65.05779, -16.14276, -4.605888, -1.030873, -19.40632, -76.42009, -55.58421
CTUN, 111927, 183, 0, 367, 0.2760077, 0.1, 0.68, 0.00, 0.00, -250, -2
ATT, 111966, -3.10, 1.44, -4.50, -3.63, 250.85, 249.88, 0.01, 0.07
RCIN, 111966, 1469, 1695, 1214, 1522, 1041, 1027, 1499, 1499, 0, 0, 0, 0, 0, 0
NTUN, 111966, -10.91621, -69.10424, 5.445235, -66.19007, -16.25118, -3.365707, -0.2000675, -19.41587, -76.53851, -54.18463
GPS, 3, 394181200, 1893, 8, 1.90, 41.3134714, -105.5817018, 0.13, 2208.07, 0.03, 0.00, -0.01, 112007
CTUN, 112027, 182, 0, 361, 0.3760085, 0.13, 0.74, 0.00, 0.00, -250, 0
ATT, 112065, -3.27, 1.74, -4.47, -3.47, 250.85, 249.77, 0.00, 0.06
RCIN, 112065, 1469, 1693, 1211, 1520, 1039, 1028, 1499, 1499, 0, 0, 0, 0, 0, 0
NTUN, 112065, -10.74988, -68.99567, 5.84669, -67.2886, -16.4358, -2.130547, -1.077262, -19.00273, -79.25755, -52.57748
CTUN, 112127, 183, 0, 369, 0.4764435, 0.17, 0.70, 0.00, 0.00, -250, 2
ATT, 112166, -3.40, 1.67, -4.39, -3.50, 250.85, 249.75, 0.00, 0.07
RCIN, 112166, 1468, 1694, 1213, 1521, 1042, 1027, 1499, 1499, 0, 0, 0, 0, 0, 0
NTUN, 112167, -10.58282, -68.88662, 6.275165, -68.36877, -16.67105, -0.9591217, 0.2832495, -19.91327, -80.94785, -50.55458
GPS, 3, 394181400, 1893, 8, 1.90, 41.3134714, -105.581702, 0.21, 2208.04, 0.02, 0.00, 0, 112225
CTUN, 112227, 182, 0, 391, 0.5806065, 0.21, 0.72, 0.00, 0.00, -250, 2
ATT, 112266, -3.52, 1.63, -4.30, -3.52, 250.85, 249.70, 0.01, 0.07
RCIN, 112266, 1469, 1695, 1213, 1521, 1042, 1027, 1500, 1499, 0, 0, 0, 0, 0, 0
NTUN, 112266, -10.40956, -68.77353, 6.641637, -69.43434, -16.93817, 0.2242203, 0.2352386, -19.6213, -82.3246, -48.18542
CTUN, 112328, 183, 0, 419, 0.6820101, 0.24, 0.67, 0.00, 0.00, -250, 1
ATT, 112366, -3.55, 1.69, -4.17, -3.29, 250.85, 249.64, 0.01, 0.08
RCIN, 112367, 1469, 1693, 1214, 1522, 1042, 1027, 1500, 1499, 0, 0, 0, 0, 0, 0
NTUN, 112367, -10.2409, -68.66344, 6.964433, -70.51872, -17.08239, 1.422455, -0.01222765, -19.75336, -82.07837, -45.95209
GPS, 3, 394181600, 1893, 8, 1.90, 41.3134715, -105.5817022, 0.27, 2208.02, 0.01, 0.00, -0.01, 112427
CTUN, 112458, 179, 0, 459, 0.7864534, 0.27, 0.84, 0.00, 0.00, -250, 1
ATT, 112468, -3.71, 1.98, -4.04, -3.08, 250.85, 249.56, 0.00, 0.09
RCIN, 112468, 1469, 1692, 1212, 1520, 1040, 1027, 1500, 1499, 0, 0, 0, 0, 0, 0
NTUN, 112469, -10.06717, -68.55004, 7.33211, -71.62117, -17.21761, 2.62957, 0.6329436, -20.26893, -84.02306, -42.77543
CTUN, 112558, 184, 0, 495, 0.886507, 0.31, 0.87, 0.00, 0.00, -250, 1
ATT, 112568, -3.85, 2.28, -3.98, -2.79, 250.85, 249.46, 0.00, 0.10
RCIN, 112568, 1469, 1695, 1214, 1522, 1041, 1027, 1500, 1499, 0, 0, 0, 0, 0, 0
NTUN, 112569, -9.900751, -68.44141, 7.737209, -72.68944, -17.47116, 3.818954, 0.5142336, -20.48248, -85.93312, -40.79826
GPS, 3, 394181800, 1893, 8, 1.90, 41.3134715, -105.5817024, 0.34, 2208.00, 0.01, 0.00, -0.01, 112627
CTUN, 112658, 183, 0, 535, 0.9888214, 0.35, 0.96, 0.00, 0.00, -250, 4
ATT, 112668, -3.94, 2.56, -3.84, -2.38, 250.85, 249.39, 0.00, 0.12
RCIN, 112668, 1470, 1692, 1212, 1520, 1040, 1028, 1500, 1499, 0, 0, 0, 0, 0, 0
NTUN, 112669, -9.730569, -68.33033, 8.09335, -73.74193, -17.71162, 5.000351, 0.630877, -20.06465, -86.59114, -37.80664
CTUN, 112758, 181, 0, 583, 1.092598, 0.39, 1.16, 0.00, 0.00, -250, 5
ATT, 112769, -3.98, 2.92, -3.80, -1.91, 250.85, 249.32, 0.00, 0.13
RCIN, 112769, 1469, 1694, 1211, 1520, 1039, 1026, 1499, 1500, 0, 0, 0, 0, 0, 0
NTUN, 112769, -9.557955, -68.21765, 8.425728, -74.7462, -17.84852, 6.125381, 0.8781397, -19.90605, -87.03411, -36.89575
GPS, 3, 394182000, 1893, 8, 1.90, 41.3134716, -105.5817026, 0.43, 2207.97, 0.03, 0.00, -0.01, 112827
CTUN, 112857, 183, 0, 638, 1.199216, 0.44, 1.15, 0.00, 0.00, -250, 5
DU32, 7, 150393
CURR, 112868, 646, 74872, 1276, 1792, 4732, 537.2098
ATT, 112877, -4.10, 3.31, -3.73, -1.41, 250.85, 249.26, 0.02, 0.15
RCIN, 112877, 1469, 1693, 1211, 1520, 1039, 1026, 1499, 1500, 0, 0, 0, 0, 0, 0
NTUN, 112877, -9.380614, -68.1019, 8.84144, -75.75859, -18.01183, 7.216202, 0.6991013, -18.28047, -88.56667, -34.93291
CTUN, 112959, 183, 0, 690, 1.304262, 0.49, 1.36, 0.00, 0.00, -250, 5
ATT, 112977, -4.25, 3.68, -3.86, -0.38, 250.85, 249.27, 0.02, 0.18
RCIN, 112978, 1469, 1695, 1214, 1522, 1041, 1028, 1499, 1500, 0, 0, 0, 0, 0, 0
NTUN, 112978, -9.20589, -67.98785, 9.337102, -76.53614, -18.29054, 8.195198, 1.957423, -16.53557, -91.63436, -36.0746
GPS, 3, 394182200, 1893, 8, 1.90, 41.3134716, -105.5817027, 0.52, 2207.95, 0.04, 0.00, -0.01, 113009
CTUN, 113059, 184, 0, 740, 1.410889, 0.54, 1.48, 0.00, 0.00, -250, 8
ATT, 113078, -4.36, 3.99, -3.96, 0.92, 250.85, 249.30, 0.00, 0.20
RCIN, 113078, 1469, 1694, 1212, 1522, 1039, 1028, 1499, 1499, 0, 0, 0, 0, 0, 0
NTUN, 113078, -9.028535, -67.87209, 9.826687, -77.09146, -18.60346, 8.982666, 2.247284, -15.64576, -94.04141, -37.13554
CTUN, 113159, 181, 2, 742, 1.5283, 0.62, 1.55, 0.00, 0.00, -250, 17
ATT, 113177, -4.51, 5.08, -4.09, 3.01, 250.85, 249.47, 0.00, 0.18
RCIN, 113178, 1469, 1693, 1214, 1522, 1038, 1027, 1500, 1499, 0, 0, 0, 0, 0, 0
NTUN, 113178, -8.833241, -67.74461, 10.44316, -77.41087, -18.943, 9.519531, 3.892432, -14.23943, -97.18429, -38.48689
GPS, 3, 394182400, 1893, 8, 1.90, 41.3134717, -105.5817029, 0.66, 2207.92, 0.04, 0.00, -0.01, 113209
CTUN, 113259, 182, 5, 772, 1.64746, 0.69, 1.19, 0.00, 0.00, -250, 15
ATT, 113278, -4.55, 6.68, -4.26, 4.89, 250.85, 249.49, 0.00, 0.16
RCIN, 113279, 1467, 1692, 1212, 1520, 1040, 1026, 1500, 1499, 0, 0, 0, 0, 0, 0
NTUN, 113279, -8.63504, -67.61523, 11.17121, -77.54189, -19.44501, 9.871597, 3.952745, -12.55891, -98.93186, -41.07679
CTUN, 113360, 181, 9, 804, 1.762429, 0.74, 1.06, 0.00, 0.00, -250, 15
ATT, 113378, -4.51, 7.64, -4.35, 6.33, 250.85, 249.44, 0.00, 0.14
RCIN, 113378, 1469, 1695, 1213, 1520, 1042, 1027, 1500, 1499, 0, 0, 0, 0, 0, 0
NTUN, 113378, -8.443809, -67.49041, 11.82963, -77.54193, -19.95171, 10.05869, 2.512737, -11.90381, -99.18442, -42.73387
GPS, 3, 394182600, 1893, 8, 1.90, 41.3134718, -105.5817029, 0.76, 2207.90, 0.09, 0.00, -0.02, 113410
CTUN, 113459, 184, 12, 860, 1.874522, 0.77, 0.95, 0.00, 0.00, -250, 8
ATT, 113479, -4.31, 8.09, -4.25, 7.44, 250.85, 249.13, 0.01, 0.15
RCIN, 113479, 1470, 1692, 1212, 1521, 1039, 1027, 1500, 1499, 0, 0, 0, 0, 0, 0
NTUN, 113480, -8.257361, -67.36871, 12.28076, -77.48461, -20.33423, 10.16108, 0.01820793, -12.32012, -95.54996, -41.79479
CTUN, 113560, 181, 15, 869, 1.98382, 0.79, 0.87, 0.00, 0.00, -250, 9
ATT, 113578, -4.05, 8.62, -4.38, 8.23, 250.85, 248.39, 0.01, 0.15
RCIN, 113578, 1470, 1695, 1211, 1521, 1039, 1028, 1499, 1500, 0, 0, 0, 0, 0, 0
NTUN, 113578, -8.075564, -67.25005, 12.65657, -77.22772, -20.53472, 10.13626, 1.195454, -9.69267, -92.73724, -44.6199
GPS, 3, 394182800, 1893, 8, 1.90, 41.3134719, -105.581703, 0.80, 2207.88, 0.06, 0.00, -0.02, 113610
CTUN, 113661, 184, 18, 907, 2.091417, 0.81, 0.65, 0.00, 0.00, -250, 4
ATT, 113680, -3.94, 9.81, -4.58, 8.38, 250.85, 247.15, 0.01, 0.16
RCIN, 113680, 1469, 1693, 1212, 1520, 1039, 1028, 1499, 1500, 0, 0, 0, 0, 0, 0
NTUN, 113680, -7.896596, -67.13322, 13.05798, -76.83134, -20.76116, 9.88401, 1.476041, -9.234557, -93.24115, -46.53525
CTUN, 113761, 183, 23, 931, 2.20028, 0.81, 0.63, 0.00, 0.00, -250, 7
ATT, 113780, -4.01, 11.37, -4.64, 8.96, 250.85, 246.13, 0.01, 0.15
RCIN, 113780, 1469, 1695, 1214, 1522, 1041, 1028, 1499, 1499, 0, 0, 0, 0, 0, 0
NTUN, 113780, -7.715522, -67.01503, 13.57805, -76.53339, -21.02836, 9.655502, 2.327487, -10.91941, -95.62549, -45.0727
GPS, 3, 394183000, 1893, 8, 1.90, 41.3134719, -105.5817031, 0.81, 2207.87, 0.04, 0.00, -0.03, 113811
CTUN, 113862, 182, 31, 968, 2.307816, 0.8, 0.24, 0.00, 0.00, -250, 5
DU32, 7, 150393
CURR, 113871, 975, 83131, 1274, 1789, 4732, 542.2096
ATT, 113881, -4.18, 12.85, -4.50, 9.73, 250.85, 245.61, 0.01, 0.12
RCIN, 113881, 1469, 1692, 1212, 1520, 1040, 1026, 1500, 1499, 0, 0, 0, 0, 0, 0
NTUN, 113882, -7.536654, -66.89828, 14.06421, -76.53761, -21.38224, 9.582947, 2.278765, -13.52637, -98.12277, -40.47837
CTUN, 113961, 182, 19, 1000, 2.409351, 0.78, 0.31, 0.00, 0.00, -250, 1
ATT, 113980, -4.24, 13.78, -4.10, 10.44, 250.85, 245.71, 0.01, 0.12
RCIN, 113980, 1469, 1695, 1214, 1521, 1042, 1028, 1500, 1499, 0, 0, 0, 0, 0, 0
NTUN, 113980, -7.367769, -66.78804, 14.44211, -76.81448, -21.62672, 9.871849, 1.7569, -15.94619, -96.45514, -33.64058
GPS, 3, 394183200, 1893, 8, 1.90, 41.313472, -105.5817032, 0.76, 2207.86, 0.08, 0.00, -0.04, 114011
CTUN, 114062, 184, -25, 1000, 2.506518, 0.75, 0.32, 0.00, 0.00, -250, -6
ATT, 114080, -4.28, 14.32, -3.56, 11.02, 250.85, 246.38, 0.02, 0.11
RCIN, 114080, 1468, 1694, 1214, 1521, 1042, 1028, 1500, 1499, 0, 0, 0, 0, 0, 0
NTUN, 114081, -7.206148, -66.68254, 14.65804, -77.4174, -21.79075, 10.38855, -1.239824, -18.83076, -93.16312, -25.47657
CTUN, 114161, 182, -56, 1000, 2.596528, 0.71, 0.47, 0.00, 0.00, -250, -12
ATT, 114180, -4.28, 13.99, -2.98, 11.05, 250.85, 247.44, 0.02, 0.12
RCIN, 114180, 1469, 1693, 1214, 1522, 1042, 1027, 1499, 1500, 0, 0, 0, 0, 0, 0
NTUN, 114181, -7.056432, -66.58482, 14.6517, -78.24837, -21.72609, 11.22922, -3.516377, -20.09736, -88.80969, -17.94822
GPS, 3, 394183400, 1893, 9, 1.76, 41.3134721, -105.5817037, 0.69, 2207.82, 0.04, 0.00, -0.03, 114232
CTUN, 114262, 184, -75, 1000, 2.681316, 0.68, 0.65, 0.00, 0.00, -250, -15
ATT, 114281, -4.22, 12.84, -2.52, 10.62, 250.85, 248.69, 0.02, 0.13
RCIN, 114281, 1469, 1693, 1212, 1520, 1042, 1028, 1499, 1500, 0, 0, 0, 0, 0, 0
NTUN, 114281, -6.915403, -66.49276, 14.45563, -79.48775, -21.46119, 12.24467, -5.197812, -20.44749, -84.57235, -12.86659
CTUN, 114362, 183, -99, 1000, 2.764874, 0.66, 0.75, 0.00, 0.00, -250, -17
ATT, 114381, -4.38, 11.41, -1.89, 9.55, 250.85, 249.73, 0.02, 0.15
RCIN, 114381, 1469, 1693, 1212, 1520, 1039, 1028, 1499, 1500, 0, 0, 0, 0, 0, 0
NTUN, 114382, -6.776418, -66.40204, 14.23569, -81.00795, -21.12761, 13.8481, -5.170411, -19.84928, -82.91019, -3.541428
GPS, 3, 394183600, 1893, 9, 1.76, 41.3134721, -105.5817042, 0.65, 2207.78, 0.03, 0.00, -0.01, 114432
CTUN, 114463, 184, -119, 1000, 2.84533, 0.64, 0.77, 0.00, 0.00, -250, -21
ATT, 114481, -4.41, 9.92, -1.63, 8.25, 250.85, 250.59, 0.00, 0.17
RCIN, 114481, 1469, 1693, 1212, 1520, 1040, 1027, 1499, 1499, 0, 0, 0, 0, 0, 0
NTUN, 114481, -6.642595, -66.31469, 13.8775, -82.67464, -20.73961, 15.4666, -6.049726, -19.74019, -81.48446, -0.640995
CTUN, 114563, 184, -135, 1000, 2.925495, 0.63, 0.97, 0.00, 0.00, -250, -21
ATT, 114581, -4.39, 8.42, -1.24, 7.24, 250.85, 251.33, 0.00, 0.17
RCIN, 114582, 1469, 1693, 1212, 1520, 1040, 1027, 1500, 1499, 0, 0, 0, 0, 0, 0
NTUN, 114582, -6.509254, -66.22765, 13.45609, -84.3908, -20.17687, 17.31554, -5.531786, -18.74595, -78.87933, 4.488182
GPS, 3, 394183800, 1893, 9, 1.76, 41.3134721, -105.5817049, 0.63, 2207.73, 0.07, 0.00, 0.01, 114632
CTUN, 114663, 182, -144, 1000, 3.004639, 0.63, 1.06, 0.00, 0.00, -250, -22
ATT, 114681, -4.38, 7.32, -1.08, 6.27, 250.85, 251.70, 0.01, 0.17
RCIN, 114682, 1468, 1693, 1212, 1520, 1041, 1026, 1500, 1499, 0, 0, 0, 0, 0, 0
NTUN, 114682, -6.377613, -66.14172, 12.98736, -86.19563, -19.6017, 19.08159, -6.207812, -18.74944, -77.78564, 6.197529
CTUN, 114762, 181, -147, 1000, 3.0812, 0.63, 0.76, 0.00, 0.00, -250, -20
ATT, 114781, -4.35, 6.47, -0.78, 5.50, 250.85, 251.75, 0.01, 0.18
RCIN, 114781, 1469, 1695, 1211, 1520, 1040, 1027, 1499, 1500, 0, 0, 0, 0, 0, 0
NTUN, 114781, -6.250267, -66.0586, 12.43549, -88.00166, -18.97, 21.07716, -7.178094, -15.43768, -75.48283, 10.76622
GPS, 3, 394184000, 1893, 9, 1.76, 41.3134721, -105.5817054, 0.62, 2207.69, 0.06, 0.00, 0.02, 114833
CTUN, 114864, 181, -154, 1000, 3.159447, 0.62, 0.80, 0.00, 0.00, -250, -18
DU32, 7, 150393
CURR, 114873, 1000, 93131, 1280, 1797, 4732, 547.201
ATT, 114883, -4.30, 6.23, -0.76, 5.25, 250.85, 251.56, 0.00, 0.18
RCIN, 114883, 1470, 1695, 1213, 1522, 1041, 1028, 1499, 1500, 0, 0, 0, 0, 0, 0
NTUN, 114884, -6.120117, -65.97365, 11.88103, -89.62704, -18.23764, 22.88762, -6.053661, -14.6673, -74.51746, 10.95979
CTUN, 114964, 181, -162, 1000, 3.240859, 0.61, 0.74, 0.00, 0.00, -250, -17
ATT, 114983, -4.34, 6.35, -0.80, 5.58, 250.85, 251.20, 0.00, 0.15
RCIN, 114983, 1470, 1694, 1214, 1522, 1041, 1028, 1499, 1499, 0, 0, 0, 0, 0, 0
NTUN, 114983, -5.984703, -65.88525, 11.45839, -91.07999, -17.65388, 24.48225, -6.384334, -13.38767, -75.29284, 10.88422
GPS, 3, 394184200, 1893, 9, 1.76, 41.3134721, -105.5817058, 0.60, 2207.66, 0.02, 0.00, 0.02, 115033
CTUN, 115064, 182, -192, 1000, 3.322815, 0.6, 0.94, 0.00, 0.00, -250, -20
ATT, 115082, -4.33, 6.56, -0.72, 6.04, 250.85, 250.66, 0.01, 0.17
RCIN, 115082, 1469, 1695, 1213, 1522, 1042, 1027, 1499, 1499, 0, 0, 0, 0, 0, 0
NTUN, 115083, -5.848383, -65.79627, 11.05193, -92.47793, -17.08882, 26.02097, -6.992474, -13.05242, -74.7431, 12.82204
CTUN, 115164, 183, -180, 1000, 3.401747, 0.59, 1.02, 0.00, 0.00, -250, -17
ATT, 115183, -4.34, 6.86, -0.66, 6.84, 250.85, 249.96, 0.01, 0.15
RCIN, 115184, 1469, 1692, 1212, 1520, 1040, 1028, 1499, 1499, 0, 0, 0, 0, 0, 0
NTUN, 115184, -5.717093, -65.71058, 10.65684, -93.71306, -16.56382, 27.41177, -6.687633, -10.41206, -74.3894, 14.68006
GPS, 3, 394184400, 1893, 9, 1.76, 41.3134722, -105.5817061, 0.60, 2207.65, 0.03, 0.00, 0.01, 115233
CTUN, 115264, 184, -186, 1000, 3.487447, 0.6, 0.94, 0.00, 0.00, -250, -14
ATT, 115283, -4.32, 7.89, -0.82, 7.72, 250.85, 249.06, 0.01, 0.14
RCIN, 115283, 1469, 1694, 1214, 1522, 1041, 1028, 1500, 1499, 0, 0, 0, 0, 0, 0
NTUN, 115283, -5.574546, -65.61753, 10.46103, -94.62616, -16.05115, 28.60211, -5.030557, -8.94193, -75.07068, 13.15454
CTUN, 115364, 184, -181, 1000, 3.573149, 0.61, 1.09, 0.00, 0.00, -250, -12
ATT, 115384, -4.60, 9.28, -1.10, 8.86, 250.85, 247.99, 0.01, 0.14
RCIN, 115384, 1469, 1692, 1212, 1520, 1040, 1027, 1500, 1499, 0, 0, 0, 0, 0, 0
NTUN, 115385, -5.431995, -65.52448, 10.55109, -95.34485, -15.89968, 29.49236, -2.70976, -7.523803, -81.14458, 11.82607
GPS, 3, 394184600, 1893, 9, 1.76, 41.3134723, -105.5817065, 0.62, 2207.63, 0.04, 0.00, -0.01, 115434
CTUN, 115465, 182, -183, 1000, 3.667969, 0.62, 0.73, 0.00, 0.00, -250, -8
ATT, 115484, -4.69, 10.98, -1.31, 10.17, 250.85, 246.96, 0.00, 0.11
RCIN, 115484, 1470, 1691, 1212, 1521, 1039, 1028, 1499, 1500, 0, 0, 0, 0, 0, 0
NTUN, 115484, -5.27428, -65.42154, 10.91541, -95.8836, -15.94733, 30.17574, -1.91019, -5.368202, -84.062, 10.85379
CTUN, 115566, 184, -199, 1000, 3.756978, 0.62, 0.22, 0.00, 0.00, -250, -8
ATT, 115584, -4.87, 12.51, -1.46, 11.39, 250.85, 246.10, 0.00, 0.10
RCIN, 115584, 1469, 1693, 1212, 1520, 1039, 1028, 1499, 1500, 0, 0, 0, 0, 0, 0
NTUN, 115585, -5.126229, -65.3249, 11.45379, -96.47039, -16.2886, 30.86057, -0.05064583, -6.360241, -88.13042, 11.25854
GPS, 3, 394184800, 1893, 9, 1.76, 41.3134724, -105.5817065, 0.60, 2207.63, 0.09, 0.00, -0.03, 115634
CTUN, 115665, 181, -214, 1000, 3.849189, 0.59, 0.42, 0.00, 0.00, -250, -9
ATT, 115683, -5.05, 13.61, -1.36, 12.71, 250.85, 245.66, 0.01, 0.10
RCIN, 115684, 1469, 1695, 1213, 1521, 1041, 1027, 1499, 1499, 0, 0, 0, 0, 0, 0
NTUN, 115684, -4.972852, -65.22478, 12.15578, -96.89003, -16.75534, 31.51283, -0.6191142, -6.661583, -90.52258, 15.15402
CTUN, 115766, 184, -231, 1000, 3.936362, 0.57, 0.37, 0.00, 0.00, -250, -10
ATT, 115784, -5.04, 14.32, -1.46, 13.78, 250.85, 245.39, 0.01, 0.09
RCIN, 115785, 1469, 1693, 1211, 1521, 1040, 1027, 1500, 1499, 0, 0, 0, 0, 0, 0
NTUN, 115785, -4.827856, -65.13013, 12.85334, -97.24121, -17.36064, 31.94909, -1.604569, -6.937716, -91.33681, 14.18902
GPS, 3, 394185000, 1893, 9, 1.76, 41.3134724, -105.5817067, 0.55, 2207.63, 0.07, 0.00, -0.03, 115834
CTUN, 115865, 182, -253, 1000, 4.022709, 0.54, 0.42, 0.00, 0.00, -250, -12
DU32, 7, 150393
CURR, 115875, 1000, 103131, 1277, 1792, 4712, 552.1923
ATT, 115885, -5.09, 14.71, -1.22, 14.60, 250.85, 245.16, 0.01, 0.08
RCIN, 115885, 1469, 1694, 1214, 1523, 1041, 1028, 1499, 1500, 0, 0, 0, 0, 0, 0
NTUN, 115885, -4.684232, -65.03639, 13.46032, -97.67485, -17.84608, 32.4057, -2.04156, -6.798705, -90.80341, 18.66138
CTUN, 115967, 184, -264, 1000, 4.056728, 0.52, 0.59, 0.00, 0.00, -250, -14
ATT, 115985, -5.15, 14.71, -1.08, 15.22, 250.85, 244.90, 0.01, 0.08
RCIN, 115986, 1469, 1693, 1211, 1521, 1041, 1028, 1499, 1499, 0, 0, 0, 0, 0, 0
NTUN, 115986, -4.627647, -64.99945, 13.99604, -98.08842, -18.36596, 32.90012, -1.941003, -7.375483, -90.97818, 21.96268
GPS, 3, 394185200, 1893, 9, 1.76, 41.3134724, -105.5817068, 0.51, 2207.62, 0.04, 0.00, -0.02, 116036
CTUN, 116067, 181, -276, 1000, 4.056728, 0.51, 0.58, 0.00, 0.00, -250, -17
ATT, 116085, -5.12, 14.49, -1.14, 16.12, 250.85, 244.47, 0.00, 0.08
RCIN, 116085, 1469, 1695, 1214, 1521, 1041, 1027, 1499, 1499, 0, 0, 0, 0, 0, 0
NTUN, 116086, -4.627647, -64.99945, 14.40695, -98.509, -18.871, 33.30603, -3.890206, -7.23558, -91.03526, 21.51457
CTUN, 116167, 184, -282, 1000, 4.056728, 0.49, 0.60, 0.00, 0.00, -250, -19
ATT, 116186, -4.95, 14.92, -0.94, 16.40, 250.85, 243.46, 0.00, 0.10
RCIN, 116186, 1469, 1692, 1212, 1520, 1039, 1028, 1500, 1499, 0, 0, 0, 0, 0, 0
NTUN, 116186, -4.627647, -64.99945, 14.56355, -98.89913, -19.13759, 33.72959, -5.565578, -4.981439, -86.60089, 24.61358
GPS, 3, 394185400, 1893, 9, 1.76, 41.3134724, -105.5817071, 0.48, 2207.59, 0.04, 0.00, -0.01, 116236
CTUN, 116267, 183, -307, 1000, 4.056728, 0.48, 0.45, 0.00, 0.00, -250, -24
ATT, 116285, -4.86, 15.36, -0.91, 17.23, 250.85, 242.42, 0.00, 0.09
RCIN, 116286, 1470, 1692, 1213, 1521, 1043, 1026, 1500, 1499, 0, 0, 0, 0, 0, 0
NTUN, 116286, -4.627647, -64.99945, 14.60676, -99.37016, -19.24116, 34.05019, -4.575879, -7.44301, -84.81638, 26.00791
CTUN, 116367, 184, -308, 1000, 4.056728, 0.45, 0.59, 0.00, 0.00, -250, -24
ATT, 116386, -5.10, 16.51, -0.71, 18.20, 250.85, 241.08, 0.00, 0.10
RCIN, 116386, 1469, 1692, 1212, 1520, 1039, 1028, 1499, 1500, 0, 0, 0, 0, 0, 0
NTUN, 116386, -4.627647, -64.99945, 14.73393, -99.9619, -19.25616, 34.69355, -1.993877, -5.499171, -86.66055, 33.24612
GPS, 3, 394185600, 1893, 9, 1.76, 41.3134724, -105.5817073, 0.43, 2207.56, 0.07, 0.00, -0.01, 116435
CTUN, 116467, 184, -322, 1000, 4.056728, 0.43, 0.59, 0.00, 0.00, -250, -27
ATT, 116486, -5.18, 18.03, -1.06, 19.91, 249.79, 239.79, 0.03, 0.09
RCIN, 116486, 1469, 1692, 1212, 1520, 1553, 1027, 1499, 1500, 0, 0, 0, 0, 0, 0
NTUN, 116487, -4.627647, -64.99945, 15.00497, -100.5391, -19.53172, 35.22434, -3.165479, -10.15241, -90.87534, 31.13652
CTUN, 116568, 184, -283, 1000, 4.03521, 0.41, 0.41, 0.00, 0.00, -250, -23
ATT, 116587, -5.33, 19.79, -1.04, 21.86, 248.16, 238.16, 0.03, 0.07
RCIN, 116587, 1470, 1693, 1210, 1521, 2029, 1027, 1500, 1499, 0, 0, 0, 0, 0, 0
NTUN, 116587, -4.627647, -64.99945, 15.46219, -101.0596, -19.72368, 35.88878, 4.808016, -1.369586, -93.3783, 35.81465
MODE, AltHold, 537
GPS, 3, 394185800, 1893, 9, 1.76, 41.3134725, -105.5817076, 0.39, 2207.50, 0.12, 0.00, 0, 116631
CTUN, 116671, 182, -46, 1000, 2.324005, 0.37, 0.43, 0.00, 0.00, -136, -22
ATT, 116690, 0.00, 21.84, 0.00, 23.89, 245.99, 235.99, 0.01, 0.08
RCIN, 116690, 1469, 1693, 1211, 1520, 2029, 1027, 1500, 1499, 0, 0, 0, 0, 0, 0
CTUN, 116771, 184, -121, 1000, 2.187773, 0.35, 0.42, 0.00, 0.00, -137, -29
ATT, 116790, 0.00, 24.35, 0.00, 25.46, 242.34, 232.34, 0.01, 0.06
RCIN, 116790, 1468, 1692, 1212, 1519, 2030, 1027, 1500, 1499, 0, 0, 0, 0, 0, 0
GPS, 3, 394186000, 1893, 9, 1.76, 41.3134726, -105.5817077, 0.33, 2207.48, 0.19, 51.77, -0.02, 116830
PM, 51, 1000, 38612, 0, 0, 0, 0
CTUN, 116871, 184, -108, 1000, 2.052172, 0.32, 0.45, 0.00, 0.00, -135, -32
DU32, 7, 150393
CURR, 116880, 1000, 113131, 1278, 1793, 4693, 557.2016
ATT, 116890, 0.00, 25.65, 0.00, 29.74, 235.32, 225.32, 0.04, 0.05
RCIN, 116891, 1473, 1695, 1214, 1522, 2031, 1028, 1499, 1500, 0, 0, 0, 0, 0, 0
CTUN, 116971, 184, 69, 1000, 1.916473, 0.29, 0.10, 0.00, 0.00, -136, -4
ATT, 116990, 0.00, 33.13, 0.00, 37.44, 227.67, 217.67, 0.04, 0.35
RCIN, 116990, 1469, 1693, 1211, 1522, 2031, 1028, 1499, 1500, 0, 0, 0, 0, 0, 0
GPS, 3, 394186200, 1893, 9, 1.76, 41.3134732, -105.5817076, 0.27, 2207.43, 0.45, 35.89, 0.01, 117030
CTUN, 117071, 182, -59, 1000, 1.780972, 0.26, 0.18, 0.00, 0.00, -136, -27
ATT, 117089, 0.00, 43.11, 0.00, 48.95, 219.04, 209.04, 0.05, 0.55
RCIN, 117090, 1469, 1694, 1214, 1522, 2029, 1028, 1499, 1500, 0, 0, 0, 0, 0, 0
CTUN, 117171, 182, -127, 1000, 1.645406, 0.22, 0.22, 0.00, 0.00, -136, -50
ATT, 117191, 0.00, 44.47, 0.00, 62.57, 203.50, 193.50, 0.05, 0.74
RCIN, 117191, 1469, 1692, 1212, 1522, 2031, 1028, 1499, 1500, 0, 0, 0, 0, 0, 0
GPS, 3, 394186400, 1893, 9, 1.76, 41.3134748, -105.5817069, 0.18, 2207.38, 0.94, 30.50, 0.03, 117230
CTUN, 117271, 181, -252, 803, 1.509676, 0.17, 0.05, 0.00, 0.00, -135, -45
ATT, 117290, 0.00, 85.90, 0.00, 82.29, 228.12, 238.12, 0.11, 0.81
RCIN, 117290, 1470, 1690, 1214, 1518, 2028, 1028, 1499, 1500, 0, 0, 0, 0, 0, 0
CTUN, 117371, 181, -937, 116, 1.482651, 0.09, 0.21, 0.00, 0.00, -136, -46
ATT, 117390, 0.00, 175.27, 0.00, 64.35, 318.38, 328.38, 0.11, 0.67
RCIN, 117390, 1473, 1687, 1214, 1514, 2032, 1027, 1499, 1500, 0, 0, 0, 0, 0, 0
GPS, 3, 394186600, 1893, 9, 1.76, 41.3134767, -105.5817066, 0.05, 2207.22, 1.05, 32.33, 0.09, 117430
CTUN, 117471, 183, -1145, 116, 1.482651, 0.01, 0.25, 0.00, 0.00, -135, -93
ATT, 117489, 0.00, 174.35, 5.27, 20.63, 324.79, 334.79, 0.11, 0.12
RCIN, 117490, 1470, 1744, 1211, 1572, 2030, 1027, 1499, 1500, 0, 0, 0, 0, 0, 0
CTUN, 117571, 182, -1009, 116, 1.482651, -0.05, 0.37, 0.00, 0.00, -135, -65
ATT, 117591, 0.00, -176.48, 6.66, -14.62, 329.07, 332.83, 0.11, 0.13
RCIN, 117591, 1461, 1753, 1212, 1580, 2029, 1027, 1499, 1499, 0, 0, 0, 0, 0, 0
GPS, 3, 394186800, 1893, 9, 1.76, 41.3134782, -105.5817052, -0.07, 2207.20, 1.06, 32.78, 0.09, 117630
CTUN, 117671, 184, -1053, 116, 1.482651, -0.08, 0.06, 0.00, 0.00, -135, -56
ATT, 117690, 0.00, -175.07, 2.63, -8.98, 329.41, 333.13, 0.53, 0.97
RCIN, 117690, 1461, 1725, 1212, 1551, 2031, 1026, 1500, 1499, 0, 0, 0, 0, 0, 0
CTUN, 117771, 182, -953, 116, 1.482651, -0.13, 0.05, 0.00, 0.00, -136, -36
ATT, 117790, 0.00, -178.30, 0.00, -11.97, 329.41, 334.18, 0.53, 0.99
RCIN, 117790, 1461, 1687, 1212, 1522, 2031, 1028, 1500, 1499, 0, 0, 0, 0, 0, 0
GPS, 3, 394187000, 1893, 9, 1.76, 41.3134796, -105.5817039, -0.15, 2207.16, 1.01, 35.13, 0.09, 117830
CTUN, 117871, 184, -1020, 116, 1.482651, -0.17, 0.09, 0.00, 0.00, -136, -42
DU32, 7, 150393
CURR, 117880, 116, 117714, 1280, 1794, 4732, 562.1838
ATT, 117890, 0.00, -178.25, 0.00, -12.31, 329.08, 335.37, 0.32, 0.99
RCIN, 117890, 1461, 1616, 1212, 1444, 2029, 1027, 1500, 1499, 0, 0, 0, 0, 0, 0
CTUN, 117971, 181, -1031, 116, 1.482651, -0.2, 0.01, 0.00, 0.00, -136, -42
ATT, 117991, 0.00, -178.15, -3.27, -12.46, 326.24, 335.60, 0.32, 0.99
RCIN, 117991, 1461, 1619, 1211, 1446, 2032, 1027, 1500, 1499, 0, 0, 0, 0, 0, 0
GPS, 3, 394187200, 1893, 9, 1.76, 41.3134806, -105.5817028, -0.22, 2207.13, 0.89, 37.12, 0.09, 118030
CTUN, 118072, 183, -1039, 116, 1.482651, -0.23, 0.09, 0.00, 0.00, -136, -41
ATT, 118090, 0.00, -178.26, 0.00, -12.60, 326.01, 336.00, 0.15, 0.99
RCIN, 118090, 1461, 1677, 1194, 1504, 2030, 1027, 1499, 1499, 0, 0, 0, 0, 0, 0
CTUN, 118171, 0, -1040, 116, 1.482651, -0.25, 0.20, 0.00, 0.00, -250, -40
ATT, 118190, 0.00, -178.36, 17.36, -12.70, 325.82, 336.45, 0.15, 0.99
RCIN, 118190, 1461, 1831, 1137, 1387, 2030, 1027, 1500, 1499, 0, 0, 0, 0, 0, 0
GPS, 3, 394187400, 1893, 9, 1.76, 41.313481, -105.5817026, -0.26, 2207.08, 0.64, 37.21, 0.09999999, 118230
CTUN, 118272, 0, -1040, 116, 1.482651, -0.27, 0.04, 0.00, 0.00, -250, -38
ATT, 118291, 0.00, -178.40, 37.77, -12.72, 324.77, 336.62, 0.11, 0.99
RCIN, 118291, 1461, 2030, 1135, 1164, 2031, 1027, 1499, 1499, 0, 0, 0, 0, 0, 0
CTUN, 118372, 0, -1049, 116, 1.482651, -0.29, 0.07, 0.00, 0.00, -250, -39
ATT, 118392, 0.00, -178.57, 45.00, -12.76, 325.07, 336.97, 0.11, 0.99
RCIN, 118392, 1461, 2031, 1137, 1158, 2030, 1028, 1499, 1499, 0, 0, 0, 0, 0, 0
GPS, 3, 394187600, 1893, 9, 1.76, 41.3134804, -105.5817037, -0.30, 2207.05, 0.26, 37.21, 0.09, 118431
CTUN, 118472, 0, -1043, 116, 1.482651, -0.31, 0.19, 0.00, 0.00, -250, -36
ATT, 118491, 0.00, -178.71, 44.86, -12.78, 325.34, 337.24, 0.15, 0.99
RCIN, 118491, 1462, 2029, 1135, 1155, 2029, 1028, 1499, 1500, 0, 0, 0, 0, 0, 0
CTUN, 118573, 0, -1037, 116, 1.482651, -0.32, 0.02, 0.00, 0.00, -250, -34
ERR, 16, 2
ATT, 118592, 0.00, -178.87, 44.86, -12.78, 325.57, 337.47, 0.15, 0.99
RCIN, 118592, 1462, 2031, 1138, 1158, 2030, 1028, 1499, 1500, 0, 0, 0, 0, 0, 0
GPS, 3, 394187800, 1893, 9, 1.76, 41.3134803, -105.5817042, -0.33, 2207.01, 0.14, 37.21, 0.09, 118632
CTUN, 118673, 0, -1042, 116, 1.482651, -0.34, 0.06, 0.00, 0.00, -250, -33
ATT, 118691, 0.00, -178.97, 44.86, -12.77, 325.85, 337.75, 0.05, 0.99
RCIN, 118691, 1461, 2029, 1135, 1156, 2029, 1027, 1499, 1500, 0, 0, 0, 0, 0, 0
CTUN, 118772, 0, -1037, 116, 1.482651, -0.35, 0.20, 0.00, 0.00, -250, -31
ATT, 118791, 0.00, -179.05, 45.00, -12.80, 326.14, 338.04, 0.05, 0.99
RCIN, 118792, 1461, 2029, 1135, 1156, 2029, 1027, 1499, 1500, 0, 0, 0, 0, 0, 0
GPS, 3, 394188000, 1893, 9, 1.76, 41.3134802, -105.5817047, -0.35, 2206.98, 0.06, 37.21, 0.08, 118832
CTUN, 118873, 0, -1037, 116, 1.482651, -0.35, -0.01, 0.00, 0.00, -250, -31
DU32, 7, 674681
CURR, 118882, 116, 118874, 1281, 1800, 4712, 567.1718
ATT, 118892, 0.00, -179.15, 45.00, -12.85, 326.46, 338.35, 0.06, 0.99
RCIN, 118892, 1461, 2029, 1135, 1156, 2028, 1028, 1499, 1500, 0, 0, 0, 0, 0, 0
CTUN, 118973, 0, -1031, 116, 1.482651, -0.36, 0.02, 0.00, 0.00, -250, -28
ATT, 118992, 0.00, -179.23, 44.86, -12.89, 326.75, 338.65, 0.06, 0.99
RCIN, 118992, 1461, 2029, 1136, 1155, 2030, 1026, 1500, 1499, 0, 0, 0, 0, 0, 0
GPS, 3, 394188200, 1893, 9, 1.76, 41.3134802, -105.5817051, -0.36, 2206.94, 0.07, 37.21, 0.08, 119032
CTUN, 119074, 0, -1038, 116, 1.482651, -0.37, 0.08, 0.00, 0.00, -250, -28
ATT, 119092, 0.00, -179.33, 45.00, -12.93, 327.05, 338.94, 0.08, 0.99
RCIN, 119092, 1461, 2028, 1136, 1156, 2029, 1027, 1500, 1499, 0, 0, 0, 0, 0, 0
EV, 17
CTUN, 119174, 0, -1034, 116, 1.482651, -0.37, 0.05, 0.00, 0.00, -250, -28
ATT, 119194, 0.00, -179.41, 44.86, -12.99, 327.37, 339.26, 0.08, 0.99
RCIN, 119194, 1461, 2029, 1137, 1158, 2029, 1028, 1500, 1499, 0, 0, 0, 0, 0, 0
GPS, 3, 394188400, 1893, 9, 1.76, 41.3134802, -105.5817054, -0.37, 2206.90, 0.03, 37.21, 0.08, 119233
CTUN, 119274, 0, -1026, 116, 1.482651, -0.38, 0.10, 0.00, 0.00, -250, -25
ATT, 119292, 0.00, -179.48, 45.00, -13.04, 327.69, 339.58, 0.09, 0.99
RCIN, 119293, 1461, 2029, 1136, 1158, 2031, 1027, 1500, 1499, 0, 0, 0, 0, 0, 0
EV, 17
CTUN, 119374, 0, -1019, 116, 1.482651, -0.37, 0.08, 0.00, 0.00, -250, -23
ATT, 119394, 0.00, -179.54, 45.00, -13.08, 328.01, 339.91, 0.09, 0.99
RCIN, 119394, 1461, 2031, 1138, 1158, 2031, 1027, 1500, 1499, 0, 0, 0, 0, 0, 0
GPS, 3, 394188600, 1893, 9, 1.76, 41.31348, -105.5817059, -0.37, 2206.87, 0.06, 37.21, 0.08, 119433
CTUN, 119474, 0, -1018, 116, 1.482651, -0.37, 0.08, 0.00, 0.00, -250, -21
ATT, 119492, 0.00, -179.63, 45.00, -13.13, 328.34, 340.23, 0.07, 0.99
RCIN, 119493, 1461, 2032, 1137, 1158, 2030, 1028, 1500, 1499, 0, 0, 0, 0, 0, 0
CTUN, 119575, 0, -1023, 116, 1.482651, -0.36, 0.08, 0.00, 0.00, -250, -22
ATT, 119595, 0.00, -179.70, 44.72, -13.16, 328.67, 340.57, 0.07, 0.99
RCIN, 119595, 1461, 2031, 1138, 1157, 2029, 1028, 1500, 1499, 0, 0, 0, 0, 0, 0
GPS, 3, 394188800, 1893, 9, 1.76, 41.31348, -105.5817062, -0.36, 2206.83, 0.03, 37.21, 0.07, 119634
CTUN, 119675, 0, -1029, 116, 1.482651, -0.36, 0.13, 0.00, 0.00, -250, -24
ATT, 119694, 0.00, -179.79, 45.00, -13.19, 329.11, 341.00, 0.11, 0.99
RCIN, 119694, 1462, 2031, 1138, 1157, 2031, 1027, 1500, 1499, 0, 0, 0, 0, 0, 0
CTUN, 119776, 0, -1008, 116, 1.482651, -0.36, 0.06, 0.00, 0.00, -250, -20
ATT, 119795, 0.00, -179.86, 44.86, -13.25, 329.44, 341.34, 0.11, 0.99
RCIN, 119795, 1461, 2031, 1137, 1158, 2029, 1028, 1500, 1499, 0, 0, 0, 0, 0, 0
GPS, 3, 394189000, 1893, 9, 1.76, 41.3134801, -105.5817067, -0.35, 2206.80, 0.04, 37.21, 0.07, 119834
CTUN, 119876, 0, -1006, 116, 1.482651, -0.35, 0.04, 0.00, 0.00, -250, -18
DU32, 7, 936825
CURR, 119885, 116, 120034, 1274, 1786, 4732, 572.1636
ATT, 119895, 0.00, -179.90, 45.00, -13.28, 329.74, 341.64, 0.11, 0.99
RCIN, 119895, 1461, 2032, 1137, 1159, 2030, 1028, 1500, 1499, 0, 0, 0, 0, 0, 0
CTUN, 119976, 0, -1001, 116, 1.482651, -0.35, 0.17, 0.00, 0.00, -250, -17
ATT, 119996, 0.00, -179.93, 45.00, -13.31, 330.04, 341.94, 0.11, 0.99
RCIN, 119996, 1461, 2030, 1135, 1156, 2029, 1027, 1500, 1499, 0, 0, 0, 0, 0, 0
GPS, 3, 394189200, 1893, 9, 1.76, 41.3134801, -105.5817073, -0.34, 2206.77, 0.08, 37.21, 0.07, 120034
CTUN, 120076, 0, -992, 116, 1.482651, -0.33, 0.06, 0.00, 0.00, -250, -15
ATT, 120094, 0.00, -179.99, 45.00, -13.34, 330.38, 342.28, 0.09, 0.99
RCIN, 120094, 1461, 2031, 1136, 1156, 2030, 1027, 1500, 1499, 0, 0, 0, 0, 0, 0
EV, 18
CTUN, 120174, 0, 0, 0, -0.3301565, -0.33, 0.04, 0.00, 0.00, -250, -12
ATT, 120193, 0.00, 179.89, 44.86, -13.40, 342.76, 342.76, 0.09, 0.99
RCIN, 120194, 1461, 2029, 1136, 1155, 2030, 1026, 1500, 1499, 0, 0, 0, 0, 0, 0
GPS, 3, 394189400, 1893, 9, 1.76, 41.3134802, -105.5817076, -0.32, 2206.76, 0.04, 37.21, 0.05, 120233
CTUN, 120274, 0, 0, 0, -0.3218314, -0.32, 0.13, 0.00, 0.00, -250, -13
ATT, 120292, 0.00, 179.76, 44.86, -13.46, 343.26, 343.26, 0.13, 0.99
